accel_x,accel_y,accel_z,timestamp
0.151031494140625,-0.214447021484375,-1.039459228515625,1554710800.228405
-0.039093017578125,-0.301666259765625,-0.956787109375,1554710800.429487
-0.0260162353515625,-0.42254638671875,-0.9735107421875,1554710800.630753
0.1305694580078125,-0.3041229248046875,-0.94329833984375,1554710800.832041
0.211700439453125,-0.2633514404296875,-0.9633941650390625,1554710801.033296
0.1433258056640625,-0.311737060546875,-0.9101715087890625,1554710801.2347841
0.20196533203125,-0.3632965087890625,-0.884429931640625,1554710801.435719
0.070831298828125,-0.42529296875,-0.99462890625,1554710801.637317
0.053436279296875,-0.3955535888671875,-1.0677337646484375,1554710801.838367
-0.0867156982421875,-0.3155670166015625,-0.8918304443359375,1554710802.03952
-0.0947723388671875,-0.3577728271484375,-0.933380126953125,1554710802.2405381
-0.1355133056640625,-0.3623046875,-0.9085845947265625,1554710802.441889
-0.0858612060546875,-0.39349365234375,-0.899932861328125,1554710802.643309
-0.00823974609375,-0.3968505859375,-0.916046142578125,1554710802.844805
0.00567626953125,-0.37939453125,-0.92791748046875,1554710803.045724
0.026611328125,-0.368682861328125,-0.93609619140625,1554710803.247021
0.0194549560546875,-0.35546875,-0.9361572265625,1554710803.44847
0.0110015869140625,-0.3500518798828125,-0.94573974609375,1554710803.649465
0.021514892578125,-0.3636474609375,-0.935455322265625,1554710803.850807
0.0021820068359375,-0.3598175048828125,-0.9287567138671875,1554710804.052052
0.0025177001953125,-0.3643798828125,-0.9290313720703125,1554710804.252917
0.00567626953125,-0.365936279296875,-0.941253662109375,1554710804.454139
0.00018310546875,-0.3702392578125,-0.918975830078125,1554710804.655555
0.00323486328125,-0.362030029296875,-0.9391021728515625,1554710804.856817
-0.00445556640625,-0.36602783203125,-0.930877685546875,1554710805.058182
0.0008392333984375,-0.3641510009765625,-0.928466796875,1554710805.259409
0.001739501953125,-0.3580780029296875,-0.9347686767578125,1554710805.460644
-0.0018768310546875,-0.3596954345703125,-0.9275360107421875,1554710805.662086
0.015411376953125,-0.3602294921875,-0.9210052490234375,1554710805.8635368
0.0060577392578125,-0.3592681884765625,-0.943145751953125,1554710806.064218
0.018463134765625,-0.36090087890625,-0.9389801025390625,1554710806.265784
0.01702880859375,-0.349578857421875,-0.935272216796875,1554710806.4670959
0.0171966552734375,-0.3609161376953125,-0.9199981689453125,1554710806.6682239
0.0118560791015625,-0.3577117919921875,-0.936737060546875,1554710806.8693628
0.015869140625,-0.3516387939453125,-0.9357452392578125,1554710807.070436
0.018218994140625,-0.3606414794921875,-0.920684814453125,1554710807.2716389
0.026275634765625,-0.3419647216796875,-0.965087890625,1554710807.473027
0.045135498046875,-0.339935302734375,-0.9862060546875,1554710807.673921
-0.0218048095703125,-0.2474822998046875,-0.933929443359375,1554710807.87521
-0.0575408935546875,-0.274261474609375,-0.9287872314453125,1554710808.076546
-0.03936767578125,-0.2673797607421875,-0.9601593017578125,1554710808.278039
-0.0005035400390625,-0.2520904541015625,-0.9765625,1554710808.479381
-0.013427734375,-0.2470703125,-0.9913482666015625,1554710808.680704
0.034515380859375,-0.293182373046875,-0.951751708984375,1554710808.8825998
0.06463623046875,-0.3060302734375,-0.7717742919921875,1554710809.083016
0.009918212890625,-0.2460784912109375,-1.0167694091796875,1554710809.284373
-0.04949951171875,-0.1861114501953125,-1.0633697509765625,1554710809.485763
0.0705108642578125,-0.267059326171875,-0.959503173828125,1554710809.686589
0.0202484130859375,-0.267333984375,-0.95458984375,1554710809.887799
-0.0610809326171875,-0.2461395263671875,-0.9888916015625,1554710810.0891628
-0.00079345703125,-0.2583465576171875,-0.95697021484375,1554710810.290084
-0.0602569580078125,-0.1891632080078125,-0.9787750244140625,1554710810.491251
-0.0596923828125,-0.2010345458984375,-0.988800048828125,1554710810.692675
-0.0041046142578125,-0.171722412109375,-0.992706298828125,1554710810.89412
0.0946502685546875,-0.227386474609375,-0.9570465087890625,1554710811.095428
0.1574859619140625,-0.2479248046875,-0.968475341796875,1554710811.2964292
0.073486328125,-0.25323486328125,-1.0074310302734375,1554710811.497575
0.0817413330078125,-0.2931671142578125,-0.9310302734375,1554710811.6990051
-0.08111572265625,-0.2594451904296875,-0.9259796142578125,1554710811.899849
-0.102996826171875,-0.2902374267578125,-0.88629150390625,1554710812.1008558
-0.08953857421875,-0.2714080810546875,-0.9820404052734375,1554710812.302185
-0.0727691650390625,-0.304107666015625,-1.0053863525390625,1554710812.5033631
-0.0626220703125,-0.2623291015625,-0.986419677734375,1554710812.704452
-0.0273590087890625,-0.1651763916015625,-1.015533447265625,1554710812.905202
0.0773468017578125,-0.235931396484375,-0.894073486328125,1554710813.106367
0.1124420166015625,-0.20172119140625,-1.0021209716796875,1554710813.307613
0.1537322998046875,-0.2861175537109375,-0.9471282958984375,1554710813.509275
0.051055908203125,-0.2394866943359375,-0.917633056640625,1554710813.710003
-0.0615081787109375,-0.221099853515625,-1.0053253173828125,1554710813.910983
-0.0893402099609375,-0.1978912353515625,-0.95452880859375,1554710814.112176
-0.01654052734375,-0.259796142578125,-0.97991943359375,1554710814.3134642
0.0240936279296875,-0.1679534912109375,-1.0070343017578125,1554710814.514659
0.077606201171875,-0.1563873291015625,-1.0626068115234375,1554710814.7158098
0.026214599609375,-0.197296142578125,-0.9411773681640625,1554710814.916709
0.0713043212890625,-0.1883697509765625,-0.958892822265625,1554710815.11784
0.070892333984375,-0.150604248046875,-0.9715423583984375,1554710815.319237
0.1573638916015625,-0.1371612548828125,-0.993438720703125,1554710815.520457
0.0802001953125,-0.1440887451171875,-1.0315093994140625,1554710815.721527
-0.044158935546875,-0.235321044921875,-1.0071563720703125,1554710815.922337
-0.1469268798828125,-0.3142852783203125,-0.9415283203125,1554710816.123859
-0.0855560302734375,-0.330352783203125,-0.849365234375,1554710816.3248959
-0.081512451171875,-0.2340850830078125,-0.9183197021484375,1554710816.526027
-0.0375518798828125,-0.2296142578125,-0.97930908203125,1554710816.7269611
-0.0119171142578125,-0.290252685546875,-0.963653564453125,1554710816.928268
-0.017578125,-0.270263671875,-0.9911041259765625,1554710817.129494
-0.0252838134765625,-0.279632568359375,-0.9957122802734375,1554710817.3308148
-0.0194549560546875,-0.2583770751953125,-0.9805908203125,1554710817.531815
-0.0236053466796875,-0.2697601318359375,-0.9482269287109375,1554710817.732913
-0.0531768798828125,-0.2258148193359375,-1.0028228759765625,1554710817.933939
-0.0272064208984375,-0.2193450927734375,-0.9919586181640625,1554710818.1352592
-0.00408935546875,-0.2211761474609375,-0.9674224853515625,1554710818.336688
-0.0071868896484375,-0.2129058837890625,-0.967010498046875,1554710818.5376282
-0.0024261474609375,-0.2407684326171875,-0.969757080078125,1554710818.7382998
0.0166473388671875,-0.2425537109375,-0.9600830078125,1554710818.93959
0.0392303466796875,-0.2472991943359375,-1.0277557373046875,1554710819.140924
0.02056884765625,-0.260772705078125,-0.9401092529296875,1554710819.3418798
-0.0845794677734375,-0.292938232421875,-0.9414215087890625,1554710819.543371
-0.1156768798828125,-0.3295440673828125,-0.8956298828125,1554710819.7443972
-0.08978271484375,-0.38787841796875,-0.98907470703125,1554710819.9455252
0.0115203857421875,-0.1927032470703125,-1.1258392333984375,1554710820.14693
-0.041015625,-0.1768035888671875,-0.8224029541015625,1554710820.347875
0.0701904296875,-0.286376953125,-0.97625732421875,1554710820.556855
0.006805419921875,-0.1982574462890625,-1.26824951171875,1554710820.749896
-0.0069122314453125,-0.1815643310546875,-0.713348388671875,1554710820.95127
0.01580810546875,-0.2265777587890625,-1.0829925537109375,1554710821.152575
0.12030029296875,-0.17828369140625,-1.0519561767578125,1554710821.353784
0.044708251953125,-0.24945068359375,-0.5576324462890625,1554710821.554762
0.0526123046875,-0.32525634765625,-1.32635498046875,1554710821.756119
-0.12799072265625,-0.1702423095703125,-0.7249298095703125,1554710821.9570088
-0.103302001953125,-0.267852783203125,-1.0022125244140625,1554710822.158685
0.13726806640625,-0.181243896484375,-1.2113494873046875,1554710822.359834
-0.0146636962890625,-0.2558441162109375,-0.5820770263671875,1554710822.560567
-0.07183837890625,-0.29339599609375,-1.235504150390625,1554710822.761725
-0.1427001953125,-0.1861572265625,-0.7625579833984375,1554710822.962914
-0.050262451171875,-0.251556396484375,-0.999420166015625,1554710823.164291
-0.0102081298828125,-0.1373138427734375,-1.17791748046875,1554710823.405271
-0.001220703125,-0.139129638671875,-0.77783203125,1554710823.566294
6.103515625e-05,-0.1715545654296875,-1.2926483154296875,1554710823.767503
-0.1859283447265625,-0.182098388671875,-0.695526123046875,1554710823.969029
-0.047576904296875,-0.215606689453125,-0.8129730224609375,1554710824.17014
-0.0054779052734375,-0.153533935546875,-1.43756103515625,1554710824.371392
-0.0726776123046875,-0.15057373046875,-0.5899810791015625,1554710824.572968
0.0347900390625,-0.1825408935546875,-1.0250244140625,1554710824.773689
-0.14752197265625,-0.2124786376953125,-0.880950927734375,1554710824.975206
-0.0450286865234375,-0.1926116943359375,-0.7533416748046875,1554710825.176342
-0.0023040771484375,-0.00299072265625,-1.544219970703125,1554710825.377233
-0.0138702392578125,-0.116912841796875,-0.6233367919921875,1554710825.5783381
-0.02313232421875,-0.199066162109375,-1.102447509765625,1554710825.779733
-0.1756439208984375,-0.1966094970703125,-0.9505462646484375,1554710825.981089
-0.0179443359375,-0.257415771484375,-0.764892578125,1554710826.1825771
-0.045989990234375,-0.1147613525390625,-1.4144744873046875,1554710826.3834639
-0.0437469482421875,-0.1335296630859375,-0.641143798828125,1554710826.584694
-0.0611724853515625,-0.214996337890625,-1.2075347900390625,1554710826.785805
-0.196990966796875,-0.2124176025390625,-0.6275482177734375,1554710826.986795
-0.101165771484375,-0.2244720458984375,-0.9129791259765625,1554710827.188602
0.0531463623046875,-0.10955810546875,-1.26715087890625,1554710827.3889232
0.034271240234375,-0.1464385986328125,-0.6043243408203125,1554710827.590032
0.0021514892578125,-0.2152099609375,-1.40850830078125,1554710827.7916799
-0.0986328125,-0.194671630859375,-0.7632598876953125,1554710827.9928331
0.0989227294921875,-0.18658447265625,-1.0508575439453125,1554710828.194031
0.1612548828125,-0.0734100341796875,-1.1455078125,1554710828.395565
0.0800628662109375,-0.20697021484375,-0.667816162109375,1554710828.596717
-0.0692291259765625,-0.0996246337890625,-1.2979736328125,1554710828.798161
-0.06951904296875,-0.14031982421875,-0.718963623046875,1554710828.9989948
-0.09027099609375,-0.165252685546875,-1.16766357421875,1554710829.238253
0.11260986328125,-0.1854400634765625,-1.007720947265625,1554710829.4007812
0.0250091552734375,-0.1635284423828125,-0.6271209716796875,1554710829.602035
-0.0279693603515625,-0.0834808349609375,-1.5236663818359375,1554710829.8033319
-0.021636962890625,-0.1670989990234375,-0.6790313720703125,1554710830.00598
-0.011871337890625,-0.097442626953125,-1.243408203125,1554710830.205996
0.101654052734375,-0.0886077880859375,-0.9461517333984375,1554710830.407199
0.02777099609375,-0.1731414794921875,-0.8225860595703125,1554710830.6085172
0.0067138671875,0.029541015625,-1.567108154296875,1554710830.809814
0.043792724609375,-0.174957275390625,-0.669097900390625,1554710831.0116901
0.07977294921875,-0.147491455078125,-1.3467559814453125,1554710831.255579
-0.0381317138671875,-0.139068603515625,-0.5722503662109375,1554710831.4128351
0.048797607421875,-0.1728973388671875,-1.072509765625,1554710831.613996
-0.0825042724609375,-0.071990966796875,-1.0840606689453125,1554710831.815466
-0.006591796875,-0.214935302734375,-0.7105560302734375,1554710832.016786
0.0755767822265625,0.0058135986328125,-1.5572662353515625,1554710832.2178202
0.05035400390625,-0.081329345703125,-0.567596435546875,1554710832.419293
0.0873260498046875,-0.18560791015625,-1.1881256103515625,1554710832.620398
-0.157745361328125,-0.1912994384765625,-0.80584716796875,1554710832.8214731
-0.0001678466796875,-0.166473388671875,-0.9312591552734375,1554710833.022757
0.25006103515625,-0.2061309814453125,-1.15301513671875,1554710833.22978
0.072845458984375,-0.1178741455078125,-0.7369537353515625,1554710833.424926
0.1409454345703125,-0.2618408203125,-1.433929443359375,1554710833.626316
-0.094879150390625,-0.190521240234375,-0.6076812744140625,1554710833.827801
0.025299072265625,-0.2613067626953125,-1.0406341552734375,1554710834.028944
0.0882415771484375,-0.1956939697265625,-0.9074859619140625,1554710834.233217
0.02984619140625,-0.271453857421875,-0.6302337646484375,1554710834.4307508
-0.115997314453125,-0.1292572021484375,-1.33941650390625,1554710834.632255
-0.0146636962890625,-0.17315673828125,-0.7068634033203125,1554710834.833571
-0.01971435546875,-0.161285400390625,-1.3082275390625,1554710835.034727
0.023284912109375,-0.1519927978515625,-0.735321044921875,1554710835.2359362
0.0609130859375,-0.1988677978515625,-0.8777923583984375,1554710835.437068
0.0578155517578125,0.0093841552734375,-1.5858306884765625,1554710835.638412
0.0334930419921875,-0.2034759521484375,-0.65130615234375,1554710835.839857
0.12249755859375,-0.2797088623046875,-1.304534912109375,1554710836.0408611
0.0706787109375,-0.070343017578125,-0.93017578125,1554710836.247652
0.125,-0.24169921875,-0.7334136962890625,1554710836.442898
0.014434814453125,-0.0179443359375,-1.528594970703125,1554710836.644188
0.0270843505859375,-0.224609375,-0.5990142822265625,1554710836.845858
0.1239776611328125,-0.168365478515625,-1.3914642333984375,1554710837.047007
0.010345458984375,-0.10125732421875,-0.775604248046875,1554710837.2482
-0.00653076171875,-0.25732421875,-0.9607086181640625,1554710837.449738
-0.2019195556640625,-0.086883544921875,-1.3011932373046875,1554710837.650697
0.00762939453125,-0.206695556640625,-0.624053955078125,1554710837.8519158
0.0353851318359375,-0.257354736328125,-1.465423583984375,1554710838.052746
-0.0446319580078125,-0.1465606689453125,-0.5457763671875,1554710838.253768
0.04571533203125,-0.187286376953125,-1.1208038330078125,1554710838.454965
-0.2094268798828125,-0.234710693359375,-0.797637939453125,1554710838.656347
-0.0495758056640625,-0.205413818359375,-0.7763824462890625,1554710838.857976
0.0903167724609375,-0.1043548583984375,-1.4483642578125,1554710839.059264
0.05157470703125,-0.16046142578125,-0.565277099609375,1554710839.260227
0.0655975341796875,-0.109893798828125,-1.4872283935546875,1554710839.4616609
-0.141448974609375,-0.1651458740234375,-0.55224609375,1554710839.662915
0.0726470947265625,-0.1715545654296875,-1.157562255859375,1554710839.863821
0.1711883544921875,-0.2183074951171875,-0.98486328125,1554710840.065102
0.044586181640625,-0.1722259521484375,-0.5835418701171875,1554710840.2657552
0.0186920166015625,-0.0803375244140625,-1.397186279296875,1554710840.4670072
0.05010986328125,-0.1742401123046875,-0.6228485107421875,1554710840.6684608
-0.0152435302734375,-0.0985565185546875,-1.342193603515625,1554710840.869828
0.03387451171875,-0.0967254638671875,-0.7760772705078125,1554710841.071156
0.1554107666015625,-0.187744140625,-0.998565673828125,1554710841.2725449
-0.0305633544921875,-0.0776824951171875,-1.3209991455078125,1554710841.47358
-0.0452117919921875,-0.2578582763671875,-0.5673980712890625,1554710841.674886
0.0,-0.0398101806640625,-1.5952301025390625,1554710841.876204
0.0004119873046875,-0.201416015625,-0.5439300537109375,1554710842.077234
-0.097412109375,-0.1709136962890625,-1.1208343505859375,1554710842.27803
-0.3028564453125,-0.166473388671875,-0.8006591796875,1554710842.479298
-0.0283966064453125,-0.2444610595703125,-0.76593017578125,1554710842.6802912
0.03839111328125,-0.0763092041015625,-1.4870147705078125,1554710842.8819551
0.06402587890625,-0.117401123046875,-0.69476318359375,1554710843.083082
-0.0253753662109375,-0.2455596923828125,-1.192291259765625,1554710843.2842588
-0.1570281982421875,-0.218902587890625,-0.7112884521484375,1554710843.485674
0.032470703125,-0.24920654296875,-1.188629150390625,1554710843.68694
0.00140380859375,-0.039031982421875,-1.121490478515625,1554710843.888023
0.03717041015625,-0.1732635498046875,-0.63165283203125,1554710844.089515
-0.0046539306640625,-0.21612548828125,-1.2442779541015625,1554710844.2904801
-0.1080780029296875,-0.1711578369140625,-0.8081207275390625,1554710844.491744
-0.011016845703125,-0.145050048828125,-1.1110382080078125,1554710844.692997
0.137420654296875,-0.0937652587890625,-1.141143798828125,1554710844.894398
0.088592529296875,-0.173004150390625,-0.459320068359375,1554710845.095736
0.0959014892578125,-0.21380615234375,-1.34112548828125,1554710845.296113
-0.0582122802734375,-0.1667022705078125,-0.6506500244140625,1554710845.49733
0.0102081298828125,-0.1997222900390625,-1.0836944580078125,1554710845.699047
0.0674591064453125,-0.15869140625,-1.09521484375,1554710845.9002361
0.0984954833984375,-0.2103271484375,-0.5565185546875,1554710846.10167
0.0051727294921875,-0.150604248046875,-1.3841400146484375,1554710846.302702
-0.159423828125,-0.2029876708984375,-0.5242156982421875,1554710846.5039492
-0.0318145751953125,-0.0489654541015625,-1.36865234375,1554710846.705134
0.023223876953125,-0.071533203125,-0.939849853515625,1554710846.906403
-0.0218658447265625,-0.2353973388671875,-0.7137451171875,1554710847.107549
0.04058837890625,-0.0552215576171875,-1.359954833984375,1554710847.308505
-0.074310302734375,-0.1832427978515625,-0.630340576171875,1554710847.509619
0.0054473876953125,-0.0445709228515625,-1.4608306884765625,1554710847.711184
0.0538177490234375,-0.0214996337890625,-0.843475341796875,1554710847.912555
0.0841522216796875,-0.213531494140625,-0.8486328125,1554710848.113686
0.0201416015625,-0.0517120361328125,-1.4315032958984375,1554710848.3143492
-0.0245208740234375,-0.1955108642578125,-0.7292633056640625,1554710848.515551
0.0621337890625,-0.24139404296875,-1.32977294921875,1554710848.717268
0.094207763671875,-0.11419677734375,-0.7493743896484375,1554710848.918651
0.0672454833984375,-0.13934326171875,-1.032012939453125,1554710849.119638
-0.0506134033203125,0.00146484375,-1.51953125,1554710849.3209739
-0.0335540771484375,-0.1768798828125,-0.5928497314453125,1554710849.522702
0.062957763671875,-0.1557464599609375,-1.41925048828125,1554710849.723491
0.1053009033203125,-0.110565185546875,-0.707672119140625,1554710849.9245892
0.0372161865234375,-0.0959320068359375,-1.187530517578125,1554710850.1258612
-0.0697021484375,-0.1567840576171875,-1.127166748046875,1554710850.3267
-0.0652008056640625,-0.2586517333984375,-0.668792724609375,1554710850.527917
0.079132080078125,-0.1519775390625,-1.451446533203125,1554710850.729583
0.0434112548828125,-0.1343841552734375,-0.562713623046875,1554710850.930643
0.008697509765625,-0.1046905517578125,-1.2027740478515625,1554710851.132185
-0.2215728759765625,-0.10003662109375,-1.0800018310546875,1554710851.333211
-0.011749267578125,-0.1736907958984375,-0.7977294921875,1554710851.534481
0.0057373046875,-0.04998779296875,-1.4571990966796875,1554710851.735604
0.055328369140625,-0.085205078125,-0.6170501708984375,1554710851.9367108
-0.1604766845703125,-0.1195831298828125,-1.19720458984375,1554710852.138177
-0.2342681884765625,-0.14520263671875,-0.7834625244140625,1554710852.339122
-0.0892333984375,-0.1187286376953125,-1.0053253173828125,1554710852.539919
0.034515380859375,0.0594635009765625,-1.2155609130859375,1554710852.741521
-0.01641845703125,-0.236297607421875,-0.42535400390625,1554710852.942863
-0.092132568359375,-0.1053466796875,-1.3194427490234375,1554710853.144306
-0.16217041015625,-0.180938720703125,-0.6159515380859375,1554710853.345508
-0.066986083984375,-0.1947021484375,-1.015289306640625,1554710853.546978
-0.0413818359375,-0.1023406982421875,-1.0216827392578125,1554710853.747824
-0.0480499267578125,-0.204254150390625,-0.49993896484375,1554710853.94902
-0.0791473388671875,0.0001678466796875,-1.5341339111328125,1554710854.151022
-0.089935302734375,-0.183990478515625,-0.4194793701171875,1554710854.350954
-0.05145263671875,-0.1334991455078125,-1.16949462890625,1554710854.552185
-0.070892333984375,-0.030792236328125,-1.2276153564453125,1554710854.753848
-0.0412139892578125,-0.2210693359375,-0.5602569580078125,1554710854.954821
-0.13153076171875,0.1040496826171875,-1.4273223876953125,1554710855.156419
0.0429534912109375,-0.1918182373046875,-0.8381195068359375,1554710855.357666
0.001556396484375,-0.0109100341796875,-1.405914306640625,1554710855.558842
0.0340728759765625,-0.1449432373046875,-0.7240447998046875,1554710855.760332
0.0102081298828125,-0.1055755615234375,-0.8892974853515625,1554710855.961354
-0.1446990966796875,-0.0650482177734375,-1.460845947265625,1554710856.1647959
-0.0623321533203125,-0.2147979736328125,-0.607696533203125,1554710856.363267
-0.05828857421875,0.025909423828125,-1.67864990234375,1554710856.5644069
0.0451507568359375,-0.1376495361328125,-0.3614501953125,1554710856.766086
-0.029998779296875,-0.1933441162109375,-1.20208740234375,1554710856.967373
-0.2958831787109375,-0.1355133056640625,-0.7243499755859375,1554710857.168535
-0.079010009765625,-0.1940155029296875,-0.80914306640625,1554710857.369699
0.063507080078125,-0.0074920654296875,-1.5273284912109375,1554710857.571049
0.06964111328125,-0.1720123291015625,-0.640228271484375,1554710857.772196
0.0280609130859375,-0.159027099609375,-1.3020782470703125,1554710857.9735742
-0.1676177978515625,-0.198333740234375,-0.74005126953125,1554710858.174727
-0.0364227294921875,-0.2860565185546875,-1.011322021484375,1554710858.375626
0.1015167236328125,-0.131011962890625,-1.2359466552734375,1554710858.576703
0.09246826171875,-0.209442138671875,-0.7181396484375,1554710858.7783198
-0.088836669921875,-0.2224273681640625,-1.247283935546875,1554710858.979743
-0.0662384033203125,-0.2119903564453125,-0.60107421875,1554710859.1807241
0.0029144287109375,-0.274932861328125,-1.053009033203125,1554710859.382131
0.1400909423828125,-0.201202392578125,-1.053863525390625,1554710859.583358
-0.0093994140625,-0.218414306640625,-0.582916259765625,1554710859.7847419
-0.138519287109375,-0.209320068359375,-1.229736328125,1554710859.985574
-0.085418701171875,-0.2203826904296875,-0.6020355224609375,1554710860.217472
-0.0010528564453125,-0.048370361328125,-1.3361663818359375,1554710860.3876681
-0.0363616943359375,-0.1543426513671875,-0.9995269775390625,1554710860.589028
0.020477294921875,-0.2783660888671875,-0.5390167236328125,1554710860.79059
-0.089874267578125,-0.068206787109375,-1.520050048828125,1554710860.99186
-0.1075286865234375,-0.1581268310546875,-0.64166259765625,1554710861.193155
0.019683837890625,-0.15869140625,-1.2038726806640625,1554710861.3941522
-0.0489349365234375,-0.1206512451171875,-0.93377685546875,1554710861.5954208
0.003662109375,-0.2320404052734375,-0.570098876953125,1554710861.796824
-0.13250732421875,-0.08282470703125,-1.4101104736328125,1554710861.997961
-0.0821685791015625,-0.2545166015625,-0.5463104248046875,1554710862.22796
-0.0904541015625,-0.019989013671875,-1.44952392578125,1554710862.3999062
0.0698699951171875,-0.015106201171875,-0.8687896728515625,1554710862.601111
-0.01715087890625,-0.2038421630859375,-0.78216552734375,1554710862.802479
-0.194549560546875,0.0282745361328125,-1.4139251708984375,1554710863.003964
-0.0181121826171875,-0.165313720703125,-0.6820068359375,1554710863.20501
-0.0614166259765625,-0.0817108154296875,-1.4465179443359375,1554710863.406918
0.038116455078125,-0.0982513427734375,-0.592193603515625,1554710863.607692
-0.019989013671875,-0.0961761474609375,-1.1158905029296875,1554710863.809221
-0.2609100341796875,-0.149658203125,-0.9144134521484375,1554710864.01118
-0.0319061279296875,-0.166229248046875,-0.955841064453125,1554710864.228461
0.10321044921875,-0.0976104736328125,-1.252716064453125,1554710864.412219
0.0155487060546875,-0.26629638671875,-0.4234771728515625,1554710864.6137009
-0.1159515380859375,-0.06817626953125,-1.2691650390625,1554710864.815044
-0.1914215087890625,-0.154754638671875,-0.4954833984375,1554710865.015768
-0.07110595703125,-0.1934661865234375,-1.151092529296875,1554710865.2170281
-0.0566558837890625,-0.0726776123046875,-1.0678558349609375,1554710865.418514
0.0425872802734375,-0.265472412109375,-0.43109130859375,1554710865.619828
-0.0788726806640625,0.03948974609375,-1.600250244140625,1554710865.821341
-0.0413055419921875,-0.2580413818359375,-0.4952239990234375,1554710866.0218449
0.122161865234375,-0.0998077392578125,-1.3377838134765625,1554710866.223092
-0.0854034423828125,-0.145416259765625,-0.5940704345703125,1554710866.424471
-0.02166748046875,-0.0542144775390625,-1.1100921630859375,1554710866.626061
-0.181549072265625,0.0125274658203125,-1.415557861328125,1554710866.827647
0.0124053955078125,-0.2585296630859375,-0.629150390625,1554710867.029786
-0.0150299072265625,0.0045013427734375,-1.5619049072265625,1554710867.2298012
-0.0339202880859375,-0.147369384765625,-0.4517364501953125,1554710867.431148
-0.1736602783203125,-0.0603179931640625,-1.21600341796875,1554710867.63245
-0.2961273193359375,-0.144012451171875,-0.816986083984375,1554710867.8333821
0.0165252685546875,-0.1500091552734375,-0.987640380859375,1554710868.034649
-0.040313720703125,-0.1056365966796875,-1.2032012939453125,1554710868.235331
-0.0742034912109375,-0.293121337890625,-0.4336090087890625,1554710868.4366732
-0.120635986328125,0.05694580078125,-1.488372802734375,1554710868.638072
-0.0686798095703125,-0.2198028564453125,-0.5348663330078125,1554710868.83957
-0.010772705078125,-0.006134033203125,-1.402801513671875,1554710869.040786
-0.0838775634765625,-0.040008544921875,-1.0491943359375,1554710869.241581
-0.0250244140625,-0.189971923828125,-0.670257568359375,1554710869.442922
-0.04248046875,0.1280975341796875,-1.6676025390625,1554710869.64429
-0.07635498046875,-0.26165771484375,-0.610321044921875,1554710869.845758
0.155487060546875,-0.097900390625,-1.4086456298828125,1554710870.047054
-0.049896240234375,-0.1288299560546875,-0.62261962890625,1554710870.248259
-0.11138916015625,-0.118804931640625,-0.9434967041015625,1554710870.449476
-0.3450775146484375,-0.060546875,-1.018157958984375,1554710870.650662
-0.0527801513671875,-0.21075439453125,-0.7456512451171875,1554710870.8520808
0.012237548828125,-0.0009002685546875,-1.55743408203125,1554710871.0530639
0.0399322509765625,-0.1493682861328125,-0.5666351318359375,1554710871.2536402
-0.0946197509765625,0.0030517578125,-1.26409912109375,1554710871.455037
-0.212860107421875,-0.2198028564453125,-0.5855560302734375,1554710871.656487
0.0184783935546875,-0.0546112060546875,-1.21820068359375,1554710871.8581991
0.050262451171875,-0.038055419921875,-1.2582550048828125,1554710872.059401
0.017791748046875,-0.1483306884765625,-0.51708984375,1554710872.260575
-0.103302001953125,-0.0064849853515625,-1.374267578125,1554710872.461577
-0.090911865234375,-0.185546875,-0.51739501953125,1554710872.662919
0.0491180419921875,-0.0187225341796875,-1.301300048828125,1554710872.864239
-0.0308074951171875,-0.0660400390625,-0.9531097412109375,1554710873.065342
-0.00567626953125,-0.1896820068359375,-0.5646820068359375,1554710873.266389
-0.169097900390625,0.0881500244140625,-1.4312286376953125,1554710873.4676418
-0.01678466796875,-0.1531982421875,-0.5795135498046875,1554710873.668839
-0.01251220703125,0.070953369140625,-1.3639984130859375,1554710873.869936
-0.02764892578125,-0.029296875,-1.05499267578125,1554710874.071344
0.016632080078125,-0.1466827392578125,-0.6926116943359375,1554710874.2722402
-0.1802520751953125,0.0018157958984375,-1.2405548095703125,1554710874.473459
-0.07684326171875,-0.2089996337890625,-0.58184814453125,1554710874.6750689
-0.0181732177734375,0.040069580078125,-1.3279876708984375,1554710874.876195
0.0262603759765625,0.004974365234375,-1.28570556640625,1554710875.0773811
-0.0380401611328125,-0.1785736083984375,-0.664031982421875,1554710875.278565
-0.04779052734375,-0.1041107177734375,-1.2917022705078125,1554710875.479792
-0.064605712890625,-0.225006103515625,-0.730865478515625,1554710875.682811
0.0335235595703125,-0.1681365966796875,-1.39886474609375,1554710875.882069
0.010101318359375,-0.081512451171875,-0.9571533203125,1554710876.0837631
0.1119842529296875,-0.2122650146484375,-0.9002227783203125,1554710876.284591
0.036529541015625,-0.17388916015625,-1.425445556640625,1554710876.485818
-0.0795745849609375,-0.272491455078125,-0.5795135498046875,1554710876.687257
0.0809783935546875,-0.2965087890625,-1.305572509765625,1554710876.888243
0.0478057861328125,-0.1437225341796875,-0.7806549072265625,1554710877.089546
0.093536376953125,-0.2686920166015625,-0.962249755859375,1554710877.2916698
-0.1074371337890625,-0.055267333984375,-1.3675689697265625,1554710877.492341
-0.06036376953125,-0.2445526123046875,-0.648773193359375,1554710877.693435
0.095489501953125,-0.2619171142578125,-1.24066162109375,1554710877.8952389
0.020965576171875,-0.152374267578125,-0.6208648681640625,1554710878.095906
-0.0095367431640625,-0.15362548828125,-1.0657196044921875,1554710878.2973108
-0.253173828125,-0.1487274169921875,-1.107818603515625,1554710878.498269
-0.0121307373046875,-0.16644287109375,-0.827606201171875,1554710878.699408
0.1519317626953125,-0.070526123046875,-1.4256744384765625,1554710878.9009418
0.118865966796875,-0.108642578125,-0.5354156494140625,1554710879.10223
-0.004425048828125,-0.1450958251953125,-1.360107421875,1554710879.3029032
-0.1389617919921875,-0.1916351318359375,-0.699188232421875,1554710879.504383
0.04052734375,-0.0662078857421875,-1.1015167236328125,1554710879.705611
0.0436248779296875,-0.1956024169921875,-1.0163726806640625,1554710879.90712
0.046417236328125,-0.2195587158203125,-0.526580810546875,1554710880.1078691
0.0150909423828125,-0.1144256591796875,-1.3571929931640625,1554710880.309102
-0.125762939453125,-0.2345123291015625,-0.5999908447265625,1554710880.510548
-0.01409912109375,-0.038177490234375,-1.2449188232421875,1554710880.711803
0.0223846435546875,-0.09649658203125,-1.0981292724609375,1554710880.912878
0.0359954833984375,-0.233795166015625,-0.6629180908203125,1554710881.114246
0.1767578125,0.1364898681640625,-1.9711761474609375,1554710881.315141
0.0106201171875,-0.2095794677734375,-0.553955078125,1554710881.5164719
0.24072265625,-0.151947021484375,-1.5261077880859375,1554710881.7182221
0.07965087890625,-0.128509521484375,-0.591949462890625,1554710881.919528
0.0317535400390625,-0.1933441162109375,-1.07110595703125,1554710882.120479
-0.17034912109375,-0.1947021484375,-0.990570068359375,1554710882.321329
0.0465850830078125,-0.2198486328125,-0.874755859375,1554710882.522574
0.239227294921875,-0.14129638671875,-1.368804931640625,1554710882.723984
0.0930328369140625,-0.1346893310546875,-0.6515350341796875,1554710882.925435
0.0394287109375,-0.1710968017578125,-1.37481689453125,1554710883.126724
-0.1278839111328125,-0.15057373046875,-0.6815185546875,1554710883.327609
0.03216552734375,-0.232269287109375,-1.0112457275390625,1554710883.528802
0.0897216796875,-0.118682861328125,-1.15582275390625,1554710883.730042
0.0966796875,-0.3077545166015625,-0.4487762451171875,1554710883.931569
-0.0410003662109375,-0.148162841796875,-1.2745208740234375,1554710884.132887
-0.064056396484375,-0.165985107421875,-0.78240966796875,1554710884.333693
-0.0572967529296875,-0.1077423095703125,-1.2713470458984375,1554710884.5349321
0.0053558349609375,0.0113067626953125,-1.103424072265625,1554710884.7364101
0.0272216796875,-0.1745452880859375,-0.788482666015625,1554710884.937921
-0.0119781494140625,-0.1221466064453125,-1.2718963623046875,1554710885.139237
0.006591796875,-0.161834716796875,-0.57696533203125,1554710885.3398318
0.0421142578125,-0.2006683349609375,-1.3221588134765625,1554710885.541086
-0.028045654296875,-0.08477783203125,-0.713897705078125,1554710885.7426229
-0.028106689453125,-0.1347808837890625,-0.9679718017578125,1554710885.944426
-0.0483856201171875,-0.00421142578125,-1.3705596923828125,1554710886.145142
-0.02850341796875,-0.2095947265625,-0.682952880859375,1554710886.346066
0.020294189453125,0.016021728515625,-1.582672119140625,1554710886.547286
0.054473876953125,-0.1242523193359375,-0.5644989013671875,1554710886.748776
-0.0728302001953125,-0.0456390380859375,-1.2651824951171875,1554710886.950094
-0.2250213623046875,-0.1082000732421875,-0.7544403076171875,1554710887.151958
0.0442352294921875,-0.1416778564453125,-0.9632110595703125,1554710887.352776
0.1165008544921875,-0.0172119140625,-1.4018707275390625,1554710887.553771
0.0548858642578125,-0.1986236572265625,-0.576141357421875,1554710887.755073
-0.139892578125,-0.031494140625,-1.305450439453125,1554710887.956379
-0.0935211181640625,-0.1129150390625,-0.8028106689453125,1554710888.1575
0.088165283203125,-0.1436767578125,-1.1858673095703125,1554710888.358412
0.0828857421875,-0.104766845703125,-1.1123809814453125,1554710888.55955
-0.0016632080078125,-0.213104248046875,-0.51025390625,1554710888.7612948
-0.0737457275390625,-0.076629638671875,-1.3737945556640625,1554710888.9628248
-0.012969970703125,-0.18292236328125,-0.650238037109375,1554710889.16503
0.1067657470703125,-0.07977294921875,-1.1817779541015625,1554710889.3650799
-0.040130615234375,-0.0294647216796875,-1.0363616943359375,1554710889.565937
0.0905303955078125,-0.1771392822265625,-0.7686309814453125,1554710889.767658
-0.1062469482421875,0.0243988037109375,-1.4015045166015625,1554710889.968587
0.0137176513671875,-0.141204833984375,-0.5260467529296875,1554710890.2255
0.0205841064453125,-0.066986083984375,-1.471832275390625,1554710890.370631
0.0008087158203125,-0.0323486328125,-0.787445068359375,1554710890.572029
0.04156494140625,-0.0555572509765625,-0.9533538818359375,1554710890.773279
-0.077545166015625,0.1385650634765625,-1.7036590576171875,1554710890.974812
0.0216522216796875,-0.135345458984375,-0.5773162841796875,1554710891.176157
0.0956573486328125,-0.0812225341796875,-1.4448089599609375,1554710891.37732
-0.0269012451171875,-0.0995330810546875,-0.6141815185546875,1554710891.578834
0.006011962890625,-0.0723419189453125,-1.1687164306640625,1554710891.780088
-0.2498931884765625,-0.0048828125,-1.0208282470703125,1554710891.981104
-0.1111602783203125,-0.155914306640625,-0.66973876953125,1554710892.227467
-0.0190887451171875,0.1241455078125,-1.7407379150390625,1554710892.38294
0.040740966796875,-0.1331634521484375,-0.5379486083984375,1554710892.5846071
-0.0995330810546875,-0.114288330078125,-1.054595947265625,1554710892.7858949
-0.3056182861328125,-0.1673126220703125,-0.8203582763671875,1554710892.986916
-0.084320068359375,-0.13067626953125,-0.822174072265625,1554710893.2373838
0.040985107421875,0.051727294921875,-1.4580230712890625,1554710893.389153
4.57763671875e-05,-0.2333526611328125,-0.382293701171875,1554710893.590306
-0.0166015625,0.023773193359375,-1.4408111572265625,1554710893.79173
-0.160614013671875,-0.1715545654296875,-0.625030517578125,1554710893.993318
0.045623779296875,-0.0781402587890625,-1.28131103515625,1554710894.248107
-0.1822509765625,-0.0582427978515625,-0.9307098388671875,1554710894.395129
0.064178466796875,-0.2454833984375,-0.5533599853515625,1554710894.596521
-0.1338348388671875,-0.021087646484375,-1.3845062255859375,1554710894.798143
-0.0419464111328125,-0.1883544921875,-0.626708984375,1554710894.999495
0.062774658203125,-0.147247314453125,-1.0512237548828125,1554710895.22299
-0.0092315673828125,-0.05206298828125,-1.04840087890625,1554710895.401417
0.10418701171875,-0.22918701171875,-0.6640472412109375,1554710895.602923
-0.0362091064453125,0.007568359375,-1.4664306640625,1554710895.804378
-0.026641845703125,-0.1671295166015625,-0.6045684814453125,1554710896.006088
0.153961181640625,0.000885009765625,-1.53265380859375,1554710896.2299762
0.0050201416015625,-0.063201904296875,-0.8594818115234375,1554710896.407578
0.03863525390625,-0.18890380859375,-0.8305816650390625,1554710896.6093779
0.0107269287109375,0.0750274658203125,-1.55023193359375,1554710896.8105268
-0.075531005859375,-0.2154083251953125,-0.514556884765625,1554710897.011919
0.0855712890625,-0.0911712646484375,-1.443023681640625,1554710897.235683
-0.025604248046875,-0.07574462890625,-0.6453399658203125,1554710897.413694
-0.01171875,-0.113983154296875,-0.946624755859375,1554710897.615236
-0.2425079345703125,0.01043701171875,-1.3860321044921875,1554710897.8166962
-0.0677642822265625,-0.221099853515625,-0.6303863525390625,1554710898.0180259
-0.0656585693359375,-0.045379638671875,-1.5074615478515625,1554710898.2241411
-0.004486083984375,-0.0938568115234375,-0.5576934814453125,1554710898.4198809
-0.12158203125,-0.0505218505859375,-1.069000244140625,1554710898.6213841
-0.2702178955078125,-0.0417022705078125,-1.027313232421875,1554710898.8229609
-0.0852203369140625,-0.209625244140625,-0.800262451171875,1554710899.023833
-0.1334075927734375,-0.08123779296875,-1.4100189208984375,1554710899.232081
-0.046478271484375,-0.1270904541015625,-0.49700927734375,1554710899.426209
-0.0638580322265625,-0.034149169921875,-1.26275634765625,1554710899.627633
-0.3025054931640625,-0.2018280029296875,-0.6862640380859375,1554710899.82929
0.0347442626953125,-0.179718017578125,-0.9098052978515625,1554710900.030147
0.0745849609375,-0.10906982421875,-1.24334716796875,1554710900.2310061
0.05340576171875,-0.23736572265625,-0.47686767578125,1554710900.4322681
0.0499420166015625,-0.1022491455078125,-1.3531036376953125,1554710900.63373
-0.2078857421875,-0.1832275390625,-0.5488739013671875,1554710900.835281
0.081512451171875,-0.11181640625,-1.150970458984375,1554710901.036463
0.0965118408203125,-0.1152191162109375,-1.0630645751953125,1554710901.2374191
0.0034332275390625,-0.210479736328125,-0.6269073486328125,1554710901.438766
-0.0513153076171875,-0.1418609619140625,-1.26702880859375,1554710901.640244
-0.0222625732421875,-0.1739501953125,-0.5726165771484375,1554710901.841322
-0.01812744140625,-0.08203125,-1.1398468017578125,1554710902.042598
0.007049560546875,-0.051605224609375,-1.0288848876953125,1554710902.243207
-0.008880615234375,-0.2244720458984375,-0.6804046630859375,1554710902.444586
-0.0058135986328125,-0.0858154296875,-1.2857208251953125,1554710902.6462
-0.1094818115234375,-0.2103729248046875,-0.6094818115234375,1554710902.847826
0.0221710205078125,-0.053497314453125,-1.4341278076171875,1554710903.048737
0.00103759765625,-0.044708251953125,-0.7700347900390625,1554710903.249804
0.0320281982421875,-0.177947998046875,-0.93682861328125,1554710903.451356
-0.09210205078125,0.0450286865234375,-1.4717864990234375,1554710903.652523
-0.0072479248046875,-0.23797607421875,-0.5062103271484375,1554710903.853472
0.0399322509765625,0.05078125,-1.8049163818359375,1554710904.05475
-0.0140533447265625,-0.11016845703125,-0.5782012939453125,1554710904.255518
0.033966064453125,-0.01055908203125,-1.26873779296875,1554710904.4568381
-0.3343353271484375,-0.032196044921875,-1.12982177734375,1554710904.6580539
-0.068572998046875,-0.19140625,-0.6253204345703125,1554710904.8595881
0.0614013671875,-0.0240936279296875,-1.510772705078125,1554710905.0608249
0.0073394775390625,-0.1552734375,-0.5353851318359375,1554710905.2623081
-0.1416473388671875,-0.03436279296875,-1.088653564453125,1554710905.463626
-0.2774505615234375,-0.166778564453125,-0.8956451416015625,1554710905.6657438
-0.0071258544921875,-0.1701507568359375,-0.8845062255859375,1554710905.866084
0.1132049560546875,-0.0693359375,-1.3980865478515625,1554710906.067235
0.0199127197265625,-0.1711883544921875,-0.4284820556640625,1554710906.2679648
0.010589599609375,-0.065093994140625,-1.3784942626953125,1554710906.469204
-0.1204681396484375,-0.1985626220703125,-0.5760345458984375,1554710906.670714
0.109283447265625,-0.0176239013671875,-1.2676544189453125,1554710906.8718948
-0.0242156982421875,-0.1334381103515625,-1.236358642578125,1554710907.073134
0.03485107421875,-0.2144012451171875,-0.335357666015625,1554710907.2743459
0.107269287109375,0.0080718994140625,-1.71051025390625,1554710907.475805
-0.2349090576171875,-0.2646331787109375,-0.404937744140625,1554710907.677547
0.127716064453125,0.08026123046875,-1.79766845703125,1554710907.8782182
0.013763427734375,-0.08319091796875,-0.9577789306640625,1554710908.079782
-0.0243072509765625,-0.2012176513671875,-0.592864990234375,1554710908.2803001
-0.08251953125,0.10943603515625,-1.7711334228515625,1554710908.4815621
-0.10504150390625,-0.19464111328125,-0.495208740234375,1554710908.6831179
0.0792999267578125,-0.072479248046875,-1.39739990234375,1554710908.884472
-0.005828857421875,-0.10296630859375,-0.6171417236328125,1554710909.0858588
-0.0703582763671875,-0.0536956787109375,-1.01483154296875,1554710909.287003
-0.46337890625,-0.0527191162109375,-1.3148651123046875,1554710909.488254
0.0218048095703125,-0.18353271484375,-0.7140960693359375,1554710909.689317
0.0461273193359375,-0.141204833984375,-1.480621337890625,1554710909.8907351
0.0608367919921875,-0.111053466796875,-0.4269256591796875,1554710910.0917702
-0.0838470458984375,0.0252532958984375,-1.063262939453125,1554710910.292633
-0.222442626953125,-0.17523193359375,-0.9431304931640625,1554710910.493931
-0.077117919921875,-0.1255950927734375,-0.907440185546875,1554710910.69549
0.0278472900390625,-0.0880584716796875,-1.2538604736328125,1554710910.897056
0.050933837890625,-0.211090087890625,-0.2834014892578125,1554710911.098267
-0.0216827392578125,0.020721435546875,-1.5087127685546875,1554710911.298861
-0.170623779296875,-0.226593017578125,-0.48809814453125,1554710911.500576
0.02960205078125,0.04888916015625,-1.3297882080078125,1554710911.70195
-0.1962890625,-0.141143798828125,-0.975372314453125,1554710911.9028811
0.0040740966796875,-0.15167236328125,-0.4863739013671875,1554710912.1042461
-0.113433837890625,0.0251922607421875,-1.27203369140625,1554710912.304881
-0.1480560302734375,-0.223602294921875,-0.47772216796875,1554710912.5060902
0.053253173828125,0.0975799560546875,-1.4637908935546875,1554710912.7075338
-0.0106964111328125,-0.1000213623046875,-0.8055267333984375,1554710912.908906
-0.007415771484375,-0.172332763671875,-0.812042236328125,1554710913.110158
0.07489013671875,0.0783233642578125,-1.6385650634765625,1554710913.311524
-0.1390380859375,-0.2563934326171875,-0.530029296875,1554710913.512963
0.1107940673828125,-0.1595306396484375,-1.4339599609375,1554710913.714261
-0.0109405517578125,-0.1298980712890625,-0.5622100830078125,1554710913.9151301
-0.03533935546875,-0.146392822265625,-1.097930908203125,1554710914.11644
-0.142974853515625,-0.020751953125,-1.1002349853515625,1554710914.317107
-0.021270751953125,-0.2174072265625,-0.835601806640625,1554710914.518507
-0.0402984619140625,-0.111114501953125,-1.43896484375,1554710914.7197251
0.002960205078125,-0.1851806640625,-0.53302001953125,1554710914.921311
-0.0158843994140625,-0.124420166015625,-1.1537628173828125,1554710915.1228619
-0.25732421875,-0.1914215087890625,-0.7732696533203125,1554710915.3240252
-0.0364227294921875,-0.246612548828125,-0.902923583984375,1554710915.525155
0.2160186767578125,-0.14215087890625,-1.181854248046875,1554710915.726612
0.1161651611328125,-0.2538604736328125,-0.5835418701171875,1554710915.928266
-0.023406982421875,-0.3283538818359375,-1.2651214599609375,1554710916.128796
-0.1590118408203125,-0.1979522705078125,-0.55108642578125,1554710916.329593
0.0091552734375,-0.2429656982421875,-1.1174774169921875,1554710916.530686
0.0615692138671875,-0.2064666748046875,-1.1462860107421875,1554710916.732306
0.0549468994140625,-0.2305450439453125,-0.4634552001953125,1554710916.933927
-0.0347137451171875,-0.1050262451171875,-1.3779144287109375,1554710917.1353111
-0.0764007568359375,-0.2230987548828125,-0.5546722412109375,1554710917.336093
0.0374603271484375,-0.16925048828125,-1.3190460205078125,1554710917.5374289
0.00408935546875,-0.1125946044921875,-0.7439727783203125,1554710917.7387218
0.072357177734375,-0.3360137939453125,-0.8272857666015625,1554710917.939865
-0.0392608642578125,-0.113189697265625,-1.2306976318359375,1554710918.140952
-0.042938232421875,-0.263641357421875,-0.61138916015625,1554710918.341815
-0.0102996826171875,-0.39093017578125,-1.245086669921875,1554710918.543066
0.0361328125,-0.192474365234375,-0.654815673828125,1554710918.745147
0.002960205078125,-0.21881103515625,-1.0349273681640625,1554710918.945942
-0.1542205810546875,-0.069305419921875,-1.364532470703125,1554710919.150484
-0.0713348388671875,-0.30401611328125,-0.6512451171875,1554710919.348742
-0.0269927978515625,-0.18927001953125,-1.454010009765625,1554710919.550024
0.0336761474609375,-0.1101837158203125,-0.7319793701171875,1554710919.751091
0.036102294921875,-0.084259033203125,-1.17919921875,1554710919.951925
-0.2687225341796875,-0.105194091796875,-0.9605560302734375,1554710920.153486
-0.102783203125,-0.17431640625,-0.692474365234375,1554710920.354186
0.029052734375,-0.1558990478515625,-1.3354339599609375,1554710920.55549
-0.02362060546875,-0.1715850830078125,-0.6831512451171875,1554710920.756579
-0.0510406494140625,-0.173858642578125,-1.10675048828125,1554710920.957957
-0.164276123046875,-0.1257171630859375,-0.9475555419921875,1554710921.159159
-0.1107330322265625,-0.2203216552734375,-0.809051513671875,1554710921.360258
0.053192138671875,-0.2069091796875,-1.227264404296875,1554710921.561696
0.05810546875,-0.2522125244140625,-0.6071624755859375,1554710921.7631989
-0.0098114013671875,-0.23834228515625,-1.3070526123046875,1554710921.964047
-0.09661865234375,-0.1213836669921875,-0.982330322265625,1554710922.1833591
-0.0468597412109375,-0.2603912353515625,-0.9137115478515625,1554710922.366519
0.077178955078125,-0.124969482421875,-1.290069580078125,1554710922.567615
0.01361083984375,-0.2257232666015625,-0.6246795654296875,1554710922.769259
-0.0793304443359375,-0.347412109375,-1.164520263671875,1554710922.9703631
-0.0030517578125,-0.1812591552734375,-0.880279541015625,1554710923.2055058
0.0572509765625,-0.3203277587890625,-0.862030029296875,1554710923.372608
0.14434814453125,-0.18572998046875,-1.0894012451171875,1554710923.573866
0.0425872802734375,-0.2656097412109375,-0.6393585205078125,1554710923.775265
0.068450927734375,-0.12213134765625,-1.216827392578125,1554710923.97654
0.0705413818359375,-0.233734130859375,-0.8449554443359375,1554710924.177907
0.0349884033203125,-0.1341552734375,-1.148193359375,1554710924.3790932
0.1522674560546875,-0.15655517578125,-1.054718017578125,1554710924.5805001
0.1591339111328125,-0.255462646484375,-0.6652374267578125,1554710924.78194
-0.1142120361328125,-0.1088714599609375,-1.1022186279296875,1554710924.98306
-0.017364501953125,-0.4014129638671875,-0.8708343505859375,1554710925.186996
0.072265625,-0.0940399169921875,-1.3906097412109375,1554710925.385068
0.200714111328125,-0.2116851806640625,-1.0173797607421875,1554710925.586125
0.0279998779296875,-0.1920166015625,-0.58685302734375,1554710925.787863
0.0252227783203125,-0.2174835205078125,-1.4300689697265625,1554710925.989157
0.004302978515625,-0.26300048828125,-0.6733551025390625,1554710926.190112
-0.2066650390625,-0.2962493896484375,-1.096435546875,1554710926.3916922
-0.195404052734375,-0.1868133544921875,-1.0496978759765625,1554710926.592494
-0.124053955078125,-0.2532501220703125,-0.75128173828125,1554710926.7941508
-0.3558807373046875,-0.003997802734375,-1.4603729248046875,1554710926.995319
-0.14361572265625,-0.241607666015625,-0.6280059814453125,1554710927.2048311
-0.097991943359375,-0.2342071533203125,-1.3394317626953125,1554710927.3972092
-0.0174407958984375,-0.08721923828125,-0.853912353515625,1554710927.5986419
-0.0056610107421875,-0.227996826171875,-0.859893798828125,1554710927.799891
-0.227935791015625,-0.1020965576171875,-1.5253143310546875,1554710928.0011082
-0.0338897705078125,-0.213531494140625,-0.7367401123046875,1554710928.202286
-0.065643310546875,-0.2233734130859375,-1.3473968505859375,1554710928.4034848
0.08135986328125,-0.17474365234375,-0.805084228515625,1554710928.605124
0.095001220703125,-0.13897705078125,-0.8759765625,1554710928.805886
0.0295562744140625,-0.056549072265625,-1.4688720703125,1554710929.007567
-0.0712738037109375,-0.223236083984375,-0.6511688232421875,1554710929.2220159
0.0800018310546875,-0.1660003662109375,-1.4371490478515625,1554710929.409641
0.092437744140625,-0.1706390380859375,-0.5773468017578125,1554710929.610879
0.0946807861328125,-0.127471923828125,-1.1201019287109375,1554710929.8132272
-0.0362396240234375,-0.125762939453125,-1.2264862060546875,1554710930.013888
0.046630859375,-0.2574310302734375,-0.7116546630859375,1554710930.215143
0.127777099609375,-0.1819000244140625,-1.3022308349609375,1554710930.416552
0.0501251220703125,-0.22882080078125,-0.590179443359375,1554710930.6177468
0.132049560546875,-0.111968994140625,-1.0551605224609375,1554710930.818578
-0.0810089111328125,-0.1501617431640625,-1.0179901123046875,1554710931.020098
0.06451416015625,-0.274322509765625,-0.8206939697265625,1554710931.2237911
0.1370086669921875,-0.1444854736328125,-1.3173980712890625,1554710931.421956
0.0315399169921875,-0.1729888916015625,-0.591949462890625,1554710931.623466
0.1263427734375,-0.0413360595703125,-1.2462615966796875,1554710931.825028
-0.0483245849609375,-0.2592010498046875,-0.68048095703125,1554710932.026026
0.075592041015625,-0.0804443359375,-1.1900634765625,1554710932.227363
0.2694091796875,-0.1237030029296875,-1.2394561767578125,1554710932.42892
0.06622314453125,-0.198699951171875,-0.5578460693359375,1554710932.63023
0.03790283203125,-0.2257843017578125,-1.2181396484375,1554710932.8310971
0.0361328125,-0.2728271484375,-0.711456298828125,1554710933.03248
0.1703033447265625,-0.2417755126953125,-1.22802734375,1554710933.233148
0.06097412109375,-0.148590087890625,-0.9901123046875,1554710933.434411
0.143707275390625,-0.1563568115234375,-0.776641845703125,1554710933.635953
-0.0520172119140625,-0.23052978515625,-1.144989013671875,1554710933.8371549
-0.000701904296875,-0.21710205078125,-0.7320404052734375,1554710934.0383492
0.0454254150390625,-0.21612548828125,-1.17303466796875,1554710934.239829
0.03741455078125,-0.112457275390625,-0.8119049072265625,1554710934.441119
0.12506103515625,-0.12451171875,-0.8808135986328125,1554710934.642463
0.0915374755859375,0.0154266357421875,-1.52691650390625,1554710934.843529
0.0698089599609375,-0.2324676513671875,-0.7152557373046875,1554710935.044575
0.20904541015625,-0.1128692626953125,-1.133270263671875,1554710935.2460709
-0.021026611328125,-0.1795501708984375,-0.704376220703125,1554710935.447144
0.2104339599609375,-0.200775146484375,-1.1344451904296875,1554710935.648623
-0.1995391845703125,-0.134429931640625,-0.889892578125,1554710935.849972
0.0227508544921875,-0.15850830078125,-0.9793548583984375,1554710936.050956
-0.0536956787109375,-0.159423828125,-1.236663818359375,1554710936.252301
0.04791259765625,-0.18121337890625,-0.5977020263671875,1554710936.453363
0.1422119140625,-0.1589202880859375,-0.992919921875,1554710936.655227
-0.1121063232421875,0.0565032958984375,-1.2804718017578125,1554710936.855953
0.0308990478515625,-0.1964569091796875,-0.9500579833984375,1554710937.057183
0.08062744140625,-0.2099609375,-1.02984619140625,1554710937.2576919
0.1180877685546875,-0.164337158203125,-0.6611328125,1554710937.459003
-0.0055084228515625,-0.1132965087890625,-1.01031494140625,1554710937.660483
-0.2396697998046875,-0.2147674560546875,-0.8831939697265625,1554710937.861742
0.1641387939453125,-0.2052154541015625,-1.01153564453125,1554710938.063435
0.1238861083984375,-0.0230712890625,-1.4452056884765625,1554710938.264495
-0.0653228759765625,-0.084503173828125,-0.6322021484375,1554710938.465594
0.091064453125,-0.35455322265625,-1.049102783203125,1554710938.667084
-0.0559844970703125,-0.2895965576171875,-0.647613525390625,1554710938.868022
0.2622833251953125,-0.19134521484375,-1.2145233154296875,1554710939.069691
-0.049285888671875,-0.1649169921875,-0.7666473388671875,1554710939.2700272
0.1739501953125,-0.0956268310546875,-1.017364501953125,1554710939.471386
0.126251220703125,0.0399932861328125,-1.478515625,1554710939.672989
0.020355224609375,-0.2240447998046875,-0.80584716796875,1554710939.874507
0.0945281982421875,-0.301666259765625,-1.0040435791015625,1554710940.0753698
0.0784912109375,-0.22308349609375,-0.6891021728515625,1554710940.2762818
0.0728302001953125,-0.2007293701171875,-0.823211669921875,1554710940.477706
0.2102203369140625,0.0917816162109375,-1.6504058837890625,1554710940.6792011
0.0132904052734375,-0.1561126708984375,-0.73162841796875,1554710940.880388
0.0435943603515625,-0.19677734375,-1.1983184814453125,1554710941.081841
-0.0616302490234375,-0.0507965087890625,-0.8152313232421875,1554710941.2829108
0.11468505859375,-0.09765625,-0.8767852783203125,1554710941.484178
0.209320068359375,-0.07452392578125,-1.313690185546875,1554710941.685554
0.1716156005859375,-0.2956695556640625,-0.691986083984375,1554710941.886797
0.1617279052734375,-0.2674713134765625,-1.20947265625,1554710942.0879478
0.03253173828125,-0.0187225341796875,-0.8401641845703125,1554710942.288797
0.12139892578125,-0.120361328125,-0.718841552734375,1554710942.4897718
0.0207061767578125,-0.2029571533203125,-0.999725341796875,1554710942.69152
0.067169189453125,-0.20111083984375,-0.81494140625,1554710942.892868
0.0485382080078125,-0.108062744140625,-1.1248779296875,1554710943.094177
0.093902587890625,-0.0514068603515625,-1.2207489013671875,1554710943.294903
0.08392333984375,-0.100189208984375,-0.7669677734375,1554710943.496119
0.217620849609375,0.137451171875,-1.6440277099609375,1554710943.697495
-0.043121337890625,-0.2497406005859375,-0.6609649658203125,1554710943.898906
0.17523193359375,-0.279632568359375,-1.1370849609375,1554710944.100333
-0.027008056640625,-0.0681304931640625,-0.68084716796875,1554710944.301577
0.1967926025390625,-0.119964599609375,-0.8254547119140625,1554710944.5026479
0.0065460205078125,-0.07379150390625,-1.2229156494140625,1554710944.70406
-0.0164031982421875,-0.223114013671875,-0.6520538330078125,1554710944.9051929
0.190155029296875,-0.1799163818359375,-1.113800048828125,1554710945.106363
0.1356658935546875,-0.0973052978515625,-0.6331787109375,1554710945.307411
0.0311126708984375,-0.0756988525390625,-0.8698272705078125,1554710945.5084739
-0.0645751953125,-0.1867218017578125,-1.030303955078125,1554710945.709728
-0.1025238037109375,-0.2443389892578125,-0.843658447265625,1554710945.9113998
-0.0788421630859375,-0.17852783203125,-1.26708984375,1554710946.112526
-0.100433349609375,-0.10760498046875,-0.95489501953125,1554710946.313407
-0.0436859130859375,-0.2267608642578125,-0.754730224609375,1554710946.514485
-0.06268310546875,-0.221466064453125,-1.2422027587890625,1554710946.716157
-0.12969970703125,-0.2798614501953125,-0.60894775390625,1554710946.917708
-0.033660888671875,-0.1944580078125,-1.3184356689453125,1554710947.118962
-0.0137939453125,-0.110107421875,-0.79351806640625,1554710947.319649
0.09332275390625,-0.1221160888671875,-0.8763427734375,1554710947.520862
0.019744873046875,-0.12322998046875,-1.2447662353515625,1554710947.722468
-0.0598297119140625,-0.1972198486328125,-0.64617919921875,1554710947.924202
0.14337158203125,-0.12310791015625,-1.282379150390625,1554710948.125138
-0.0146942138671875,-0.087493896484375,-0.71038818359375,1554710948.32566
0.06890869140625,-0.1070556640625,-0.99993896484375,1554710948.5268521
-0.060821533203125,-0.03948974609375,-1.2384490966796875,1554710948.7283502
-0.0209808349609375,-0.182891845703125,-0.781829833984375,1554710948.930039
0.11505126953125,-0.0545806884765625,-1.3893890380859375,1554710949.131468
0.1499786376953125,-0.1333160400390625,-0.5522308349609375,1554710949.3318582
-0.0624237060546875,-0.01776123046875,-1.30084228515625,1554710949.533169
-0.1271514892578125,-0.18536376953125,-0.9946746826171875,1554710949.7347589
0.052032470703125,-0.10693359375,-1.1770782470703125,1554710949.936112
0.3211822509765625,-0.1466827392578125,-1.122283935546875,1554710950.1373482
0.1477813720703125,-0.0663909912109375,-0.799896240234375,1554710950.338036
0.000457763671875,-0.1823577880859375,-1.017669677734375,1554710950.5392919
-0.0774383544921875,-0.2226715087890625,-0.5864105224609375,1554710950.740693
0.1663818359375,-0.1268310546875,-1.254608154296875,1554710950.9420261
-0.0013885498046875,-0.1226806640625,-0.73492431640625,1554710951.143427
0.04913330078125,-0.1359405517578125,-0.7751312255859375,1554710951.344164
0.0048675537109375,0.0149383544921875,-1.496978759765625,1554710951.545356
0.0185089111328125,-0.2831573486328125,-0.6640472412109375,1554710951.746943
0.1604156494140625,-0.1815338134765625,-1.295013427734375,1554710951.948698
0.0828094482421875,-0.1536865234375,-0.5423736572265625,1554710952.1553922
0.12103271484375,-0.131072998046875,-1.0565948486328125,1554710952.350956
-0.1163177490234375,-0.191162109375,-0.8356781005859375,1554710952.5521169
0.08575439453125,-0.20989990234375,-1.198638916015625,1554710952.753339
0.1142730712890625,-0.0239105224609375,-1.00054931640625,1554710952.9545221
0.099395751953125,-0.1525421142578125,-0.741912841796875,1554710953.155693
-0.065460205078125,0.0798797607421875,-1.4250640869140625,1554710953.356454
-0.001190185546875,-0.280548095703125,-0.5557098388671875,1554710953.5577478
0.311370849609375,-0.159027099609375,-1.2847137451171875,1554710953.759265
0.184234619140625,-0.007171630859375,-0.7319183349609375,1554710953.960563
0.1088714599609375,0.018829345703125,-1.30535888671875,1554710954.16166
-0.1310577392578125,-0.1331939697265625,-1.03924560546875,1554710954.3632
0.0394287109375,-0.2633819580078125,-0.758087158203125,1554710954.565367
0.152374267578125,-0.154266357421875,-1.1374969482421875,1554710954.76564
-0.034942626953125,-0.259429931640625,-0.7752227783203125,1554710954.9669762
-0.0283660888671875,-0.193511962890625,-1.2555389404296875,1554710955.211288
-0.036712646484375,-0.189849853515625,-0.679229736328125,1554710955.369151
-0.06268310546875,-0.029296875,-1.3876495361328125,1554710955.570086
-0.0412445068359375,-0.148193359375,-0.68145751953125,1554710955.7716122
0.173980712890625,-0.1900787353515625,-0.8114166259765625,1554710955.973062
0.0604095458984375,-0.1182403564453125,-1.347930908203125,1554710956.173984
-0.0500640869140625,-0.21929931640625,-0.565460205078125,1554710956.375482
0.07763671875,-0.061248779296875,-1.3372344970703125,1554710956.5768452
0.0665435791015625,-0.1597137451171875,-0.754302978515625,1554710956.7781448
0.0546417236328125,-0.0716705322265625,-0.8957672119140625,1554710956.979144
0.1096343994140625,0.165740966796875,-1.399749755859375,1554710957.1802402
0.0116119384765625,-0.1935882568359375,-0.7287750244140625,1554710957.381205
0.145782470703125,-0.1915283203125,-1.0237274169921875,1554710957.582506
-0.00848388671875,-0.212982177734375,-0.5820770263671875,1554710957.784189
0.0272064208984375,0.0132293701171875,-1.1550140380859375,1554710957.985729
0.1315765380859375,-0.0666046142578125,-1.3079681396484375,1554710958.221786
-0.043365478515625,-0.20184326171875,-0.5960693359375,1554710958.387346
0.1367645263671875,-0.0706024169921875,-1.3171234130859375,1554710958.5886412
0.00372314453125,-0.1548309326171875,-0.762664794921875,1554710958.790203
0.0769805908203125,-0.05718994140625,-0.9142913818359375,1554710958.991478
-0.0836334228515625,0.011474609375,-1.1298980712890625,1554710959.192689
-0.02996826171875,-0.1632080078125,-0.8219757080078125,1554710959.394182
0.053802490234375,-0.057037353515625,-1.2488555908203125,1554710959.59513
0.045745849609375,-0.141326904296875,-0.5410308837890625,1554710959.7965431
0.0405120849609375,0.0190887451171875,-1.3152313232421875,1554710959.998022
-0.16552734375,-0.13909912109375,-0.780609130859375,1554710960.2237492
-0.0231781005859375,-0.09490966796875,-1.036865234375,1554710960.399801
0.051483154296875,-0.163848876953125,-1.246490478515625,1554710960.601424
0.0569610595703125,-0.1103668212890625,-0.4806976318359375,1554710960.802648
-0.0009613037109375,-0.0046844482421875,-1.31219482421875,1554710961.004757
-0.1297149658203125,-0.1202545166015625,-0.8797607421875,1554710961.204988
0.0933685302734375,-0.11383056640625,-0.96588134765625,1554710961.406396
0.08026123046875,-0.1375579833984375,-1.355438232421875,1554710961.608127
-0.0068206787109375,-0.1569976806640625,-0.45074462890625,1554710961.809053
-0.03839111328125,-0.0398101806640625,-1.3681640625,1554710962.009974
-0.0318603515625,-0.2024078369140625,-0.74981689453125,1554710962.224685
0.0413970947265625,-0.087982177734375,-1.1873626708984375,1554710962.412106
-0.02392578125,-0.048187255859375,-1.0033416748046875,1554710962.613405
0.0575103759765625,-0.159271240234375,-0.6931915283203125,1554710962.814764
-0.02032470703125,0.0355377197265625,-1.462554931640625,1554710963.016226
-0.1340789794921875,-0.1876678466796875,-0.605010986328125,1554710963.2222881
-0.0413665771484375,-0.07025146484375,-1.425445556640625,1554710963.4182649
-0.0830230712890625,-0.05902099609375,-0.817291259765625,1554710963.619687
0.0719757080078125,-0.0890350341796875,-0.7900238037109375,1554710963.821199
-0.1302337646484375,-0.02606201171875,-1.55859375,1554710964.022656
-0.028533935546875,-0.1944122314453125,-0.6725006103515625,1554710964.223617
-0.025970458984375,-0.177093505859375,-1.3421630859375,1554710964.4249
0.0143280029296875,-0.0997161865234375,-0.552520751953125,1554710964.626041
-0.0208587646484375,-0.17724609375,-1.1875762939453125,1554710964.8271089
-0.08843994140625,-0.065277099609375,-1.2265472412109375,1554710965.0283961
0.0134735107421875,-0.281494140625,-0.8067169189453125,1554710965.2291431
0.07257080078125,-0.15057373046875,-1.2718353271484375,1554710965.430509
0.033203125,-0.2116851806640625,-0.59393310546875,1554710965.631837
-0.0431060791015625,-0.120269775390625,-1.2974853515625,1554710965.833298
-0.15643310546875,-0.1541595458984375,-0.9673004150390625,1554710966.034617
0.0095977783203125,-0.19805908203125,-0.8409271240234375,1554710966.2461739
0.1242523193359375,-0.2006072998046875,-1.1443634033203125,1554710966.436753
-0.01727294921875,-0.2273101806640625,-0.5146484375,1554710966.6381788
-0.0136871337890625,-0.0966033935546875,-1.3190765380859375,1554710966.839871
0.03863525390625,-0.2707977294921875,-0.590606689453125,1554710967.041034
-0.0257415771484375,-0.12261962890625,-1.2326507568359375,1554710967.242138
0.0361480712890625,-0.14617919921875,-1.1738128662109375,1554710967.443547
0.0821990966796875,-0.0916900634765625,-0.6230621337890625,1554710967.64466
0.1162872314453125,-0.134521484375,-1.218536376953125,1554710967.84582
-0.0696868896484375,-0.1833648681640625,-0.578094482421875,1554710968.047028
0.2239990234375,-0.099365234375,-1.595947265625,1554710968.247633
0.021820068359375,-0.07720947265625,-0.8804168701171875,1554710968.449012
0.1448211669921875,-0.1475067138671875,-0.9945526123046875,1554710968.650579
-0.0982513427734375,0.052490234375,-1.166595458984375,1554710968.85189
-0.00830078125,-0.1263427734375,-0.6124267578125,1554710969.053389
0.1298828125,-0.108306884765625,-1.2641754150390625,1554710969.2539968
0.0542449951171875,-0.137725830078125,-0.4977569580078125,1554710969.4551868
-0.14752197265625,0.0366973876953125,-1.3555145263671875,1554710969.656814
-0.1352386474609375,-0.1737823486328125,-0.959930419921875,1554710969.858506
-0.07525634765625,-0.18463134765625,-0.927337646484375,1554710970.059351
-0.0036773681640625,-0.1029205322265625,-1.3165283203125,1554710970.260355
0.0826568603515625,-0.142120361328125,-0.5961761474609375,1554710970.462027
-0.1138916015625,-0.0319366455078125,-1.32098388671875,1554710970.663087
-0.0434417724609375,-0.3069305419921875,-0.513092041015625,1554710970.864297
0.0060577392578125,-0.0191192626953125,-1.5928955078125,1554710971.0656738
0.0608978271484375,-0.1659088134765625,-0.760406494140625,1554710971.26623
0.0645294189453125,-0.1150665283203125,-0.7677764892578125,1554710971.467663
0.0104827880859375,-0.141815185546875,-1.334503173828125,1554710971.669135
-0.0781402587890625,-0.235443115234375,-0.5707550048828125,1554710971.870724
0.064727783203125,-0.09381103515625,-1.4827117919921875,1554710972.071855
0.066131591796875,-0.0576934814453125,-0.7397613525390625,1554710972.273248
0.188751220703125,-0.0868988037109375,-1.02960205078125,1554710972.474543
-0.1982269287109375,-0.019561767578125,-1.2051239013671875,1554710972.675416
0.02294921875,-0.120635986328125,-0.74468994140625,1554710972.876797
0.1357269287109375,-0.2840728759765625,-0.976898193359375,1554710973.078117
0.078948974609375,-0.1504058837890625,-0.659576416015625,1554710973.278717
0.1086578369140625,-0.1126708984375,-1.0354766845703125,1554710973.479799
-0.25726318359375,-0.0364227294921875,-1.149444580078125,1554710973.681442
-0.0529632568359375,-0.205780029296875,-0.7129974365234375,1554710973.883338
0.0205230712890625,-0.0589447021484375,-1.5293731689453125,1554710974.084021
0.09454345703125,-0.1935882568359375,-0.5723876953125,1554710974.285318
-0.00213623046875,0.02154541015625,-0.985931396484375,1554710974.486703
-0.3065032958984375,-0.1605682373046875,-1.1847686767578125,1554710974.6879191
0.0380859375,-0.0379180908203125,-1.283905029296875,1554710974.888998
0.194000244140625,-0.1818695068359375,-0.9838409423828125,1554710975.090508
0.039093017578125,-0.14410400390625,-0.576904296875,1554710975.290913
-0.0005645751953125,-0.1386260986328125,-1.2690887451171875,1554710975.492276
0.0185089111328125,-0.21197509765625,-0.79278564453125,1554710975.6937351
0.0511322021484375,-0.2457427978515625,-1.1998291015625,1554710975.8948889
-0.0009918212890625,-0.082733154296875,-0.8840484619140625,1554710976.0964432
0.0021820068359375,-0.2166595458984375,-0.912353515625,1554710976.2975311
-0.030731201171875,-0.0113067626953125,-1.56280517578125,1554710976.498831
-0.0461883544921875,-0.262176513671875,-0.603546142578125,1554710976.7004929
0.073883056640625,-0.237274169921875,-1.253936767578125,1554710976.901356
-0.0600433349609375,-0.131011962890625,-0.6527099609375,1554710977.1024342
0.0986328125,-0.0798492431640625,-1.1234130859375,1554710977.303674
-0.0672149658203125,-0.1155853271484375,-1.11865234375,1554710977.5045261
0.0883941650390625,-0.1988983154296875,-0.8893585205078125,1554710977.706203
0.1172027587890625,-0.10205078125,-1.1680755615234375,1554710977.9076638
0.0382843017578125,-0.095489501953125,-0.625244140625,1554710978.1091928
-0.007904052734375,-0.008697509765625,-1.406005859375,1554710978.309355
-0.0835113525390625,-0.166778564453125,-0.87762451171875,1554710978.510623
0.199310302734375,-0.1548004150390625,-1.08526611328125,1554710978.712245
0.1090240478515625,-0.1644439697265625,-1.12823486328125,1554710978.91334
0.0227508544921875,-0.126007080078125,-0.45648193359375,1554710979.1148372
-0.0626983642578125,-0.0760498046875,-1.33538818359375,1554710979.316021
0.1343536376953125,-0.1558990478515625,-0.857513427734375,1554710979.517338
-0.101165771484375,0.012237548828125,-1.2981109619140625,1554710979.718612
0.0438079833984375,-0.1061859130859375,-0.9417877197265625,1554710979.9200258
0.06719970703125,-0.220550537109375,-0.5830535888671875,1554710980.12096
-0.0740966796875,-0.0075836181640625,-1.5985870361328125,1554710980.3218079
-0.0036468505859375,-0.1876220703125,-0.4798736572265625,1554710980.522914
0.0214080810546875,-0.2438201904296875,-1.245208740234375,1554710980.7246242
-0.0220947265625,-0.0765380859375,-0.816070556640625,1554710980.926182
0.0894622802734375,-0.17547607421875,-0.8248443603515625,1554710981.1270142
-0.087921142578125,0.006561279296875,-1.378082275390625,1554710981.3284612
0.0636749267578125,-0.178131103515625,-0.6244049072265625,1554710981.5297952
-0.1074676513671875,-0.1863250732421875,-1.03515625,1554710981.73088
0.0102081298828125,-0.1348876953125,-0.68243408203125,1554710981.932228
0.0740509033203125,-0.1547698974609375,-1.11322021484375,1554710982.133393
-0.21978759765625,-0.1112518310546875,-1.0464630126953125,1554710982.3340101
0.0272674560546875,-0.241455078125,-0.7854156494140625,1554710982.535222
0.0348358154296875,-0.1162872314453125,-1.225921630859375,1554710982.737025
0.0514984130859375,-0.2052459716796875,-0.6120758056640625,1554710982.938124
-0.1084136962890625,-0.1401519775390625,-1.272491455078125,1554710983.1393929
-0.17315673828125,-0.1313629150390625,-0.76153564453125,1554710983.340661
-0.03289794921875,-0.22735595703125,-1.0186614990234375,1554710983.541813
0.12091064453125,-0.1765289306640625,-1.1525726318359375,1554710983.743551
0.070220947265625,-0.250457763671875,-0.5748748779296875,1554710983.944526
-0.119781494140625,-0.1377105712890625,-1.4079437255859375,1554710984.145462
0.001922607421875,-0.195281982421875,-0.681243896484375,1554710984.346362
0.0063934326171875,-0.2714080810546875,-1.15948486328125,1554710984.547683
0.0421905517578125,-0.1038360595703125,-1.0094451904296875,1554710984.7492619
0.0553131103515625,-0.2164459228515625,-0.860076904296875,1554710984.951206
0.00567626953125,-0.0472869873046875,-1.389739990234375,1554710985.1547909
-0.0837554931640625,-0.2492828369140625,-0.53802490234375,1554710985.3530788
0.149261474609375,-0.229705810546875,-1.341094970703125,1554710985.5541701
-0.00286865234375,-0.1261444091796875,-0.724029541015625,1554710985.755528
-0.0553436279296875,-0.0509796142578125,-1.1014862060546875,1554710985.956778
-0.0863189697265625,-0.1572265625,-1.0747222900390625,1554710986.159227
0.0226593017578125,-0.21014404296875,-0.8961944580078125,1554710986.358582
0.1623992919921875,-0.21319580078125,-1.192474365234375,1554710986.559802
0.0844879150390625,-0.125396728515625,-0.585723876953125,1554710986.7615619
0.0841064453125,-0.17279052734375,-1.3094635009765625,1554710986.9629102
-0.016845703125,-0.21649169921875,-0.6822509765625,1554710987.1648889
0.0858306884765625,-0.189483642578125,-1.14959716796875,1554710987.365314
0.0163116455078125,-0.120758056640625,-1.0885162353515625,1554710987.566296
0.0426788330078125,-0.194915771484375,-0.70245361328125,1554710987.7678561
0.023468017578125,-0.0834808349609375,-1.3155059814453125,1554710987.968952
-0.0069580078125,-0.2186431884765625,-0.654571533203125,1554710988.169982
0.0584564208984375,-0.1904296875,-1.3212738037109375,1554710988.3709059
0.039276123046875,-0.0537872314453125,-0.96600341796875,1554710988.572217
0.1998443603515625,-0.23370361328125,-0.889404296875,1554710988.773915
0.074066162109375,-0.002410888671875,-1.2494049072265625,1554710988.9754028
0.07305908203125,-0.261444091796875,-0.64117431640625,1554710989.176303
-0.04278564453125,-0.12860107421875,-1.42559814453125,1554710989.377575
0.0189971923828125,-0.17559814453125,-0.6220550537109375,1554710989.578631
-0.0543975830078125,-0.095489501953125,-1.1151580810546875,1554710989.7801561
-0.184661865234375,-0.078277587890625,-0.701080322265625,1554710989.981307
-0.0304718017578125,-0.13262939453125,-1.13201904296875,1554710990.220994
0.15179443359375,-0.096588134765625,-1.1916656494140625,1554710990.383247
0.0704193115234375,-0.163970947265625,-0.4963531494140625,1554710990.5843592
0.0347747802734375,-0.0831451416015625,-1.5097503662109375,1554710990.786076
-0.059661865234375,-0.1827545166015625,-0.631622314453125,1554710990.98743
0.053558349609375,-0.1482696533203125,-1.2049713134765625,1554710991.218363
0.0130615234375,0.0023651123046875,-1.068328857421875,1554710991.389453
0.0648193359375,-0.181304931640625,-0.564605712890625,1554710991.5909328
0.130584716796875,0.1065216064453125,-1.7289276123046875,1554710991.7924562
0.045166015625,-0.161651611328125,-0.5324249267578125,1554710991.994045
-0.023681640625,-0.0369873046875,-1.38250732421875,1554710992.225205
0.098663330078125,-0.004119873046875,-0.946746826171875,1554710992.3955011
0.0879058837890625,-0.1512603759765625,-0.75347900390625,1554710992.5969172
-0.03057861328125,0.0648956298828125,-1.398834228515625,1554710992.7985082
0.0461883544921875,-0.091064453125,-0.667724609375,1554710992.999891
0.0054473876953125,-0.0917816162109375,-1.1883087158203125,1554710993.235242
-0.0096435546875,-0.085296630859375,-0.664947509765625,1554710993.4016361
0.150604248046875,-0.064544677734375,-1.0406951904296875,1554710993.603169
-0.218841552734375,-0.0185394287109375,-1.0501556396484375,1554710993.804614
0.00543212890625,-0.17291259765625,-0.7282867431640625,1554710994.006178
6.103515625e-05,0.038055419921875,-1.52508544921875,1554710994.20712
-0.01885986328125,-0.0789031982421875,-0.6088714599609375,1554710994.408249
0.0131988525390625,0.1091461181640625,-1.33953857421875,1554710994.609695
-0.24127197265625,-0.1594696044921875,-0.9283905029296875,1554710994.8111491
-0.0824432373046875,-0.07501220703125,-1.045806884765625,1554710995.012021
-0.004852294921875,-0.0544891357421875,-1.196380615234375,1554710995.213057
0.0454864501953125,-0.12841796875,-0.581451416015625,1554710995.4139218
-0.0828399658203125,0.0087738037109375,-1.3170013427734375,1554710995.615484
-0.0766448974609375,-0.0874481201171875,-0.878814697265625,1554710995.816725
0.0193634033203125,-0.110107421875,-1.083740234375,1554710996.0180779
0.05316162109375,-0.03961181640625,-1.3990020751953125,1554710996.219153
0.0453338623046875,-0.1306610107421875,-0.4637451171875,1554710996.420542
-0.137359619140625,-0.01605224609375,-1.261627197265625,1554710996.621944
-0.1460723876953125,-0.1741180419921875,-0.7519683837890625,1554710996.823196
0.077606201171875,-0.087890625,-1.242340087890625,1554710997.024395
-0.14581298828125,0.0296173095703125,-1.071685791015625,1554710997.228119
-0.02142333984375,-0.1439361572265625,-0.5867919921875,1554710997.426331
-0.2364959716796875,0.0142364501953125,-1.3432464599609375,1554710997.6277199
-0.0296478271484375,-0.2085418701171875,-0.677520751953125,1554710997.829277
-0.05755615234375,-0.1021575927734375,-1.2632598876953125,1554710998.030305
-0.054962158203125,-0.083892822265625,-0.6798858642578125,1554710998.231522
-0.013092041015625,-0.08612060546875,-0.8647918701171875,1554710998.432767
-0.2110137939453125,0.0295562744140625,-1.509735107421875,1554710998.634088
-0.04266357421875,-0.1488800048828125,-0.6163482666015625,1554710998.835998
-0.152862548828125,-0.1104278564453125,-1.1498870849609375,1554710999.036531
-0.014984130859375,0.0320587158203125,-0.8935546875,1554710999.237342
-0.028961181640625,-0.181549072265625,-0.841522216796875,1554710999.438575
-0.1336822509765625,0.0470733642578125,-1.3170166015625,1554710999.6401238
-0.0464630126953125,-0.2022552490234375,-0.6263885498046875,1554710999.841408
-0.1693878173828125,-0.0815277099609375,-1.4621429443359375,1554711000.04267
-0.060302734375,-0.137603759765625,-0.62628173828125,1554711000.243942
-0.0312347412109375,-0.065338134765625,-0.9310760498046875,1554711000.445267
-0.3331146240234375,-0.036224365234375,-1.1001739501953125,1554711000.646503
-0.1039581298828125,-0.1347808837890625,-0.793182373046875,1554711000.8476481
-0.1518096923828125,-0.06011962890625,-1.4065093994140625,1554711001.048924
-0.0359954833984375,-0.1438446044921875,-0.5036773681640625,1554711001.2494931
-0.1024932861328125,-0.0203399658203125,-1.0671844482421875,1554711001.450944
-0.17559814453125,-0.0531768798828125,-0.9322967529296875,1554711001.6527328
-0.2584991455078125,-0.194915771484375,-0.955230712890625,1554711001.853746
0.026641845703125,0.032379150390625,-1.3235626220703125,1554711002.055074
0.0801849365234375,-0.0793609619140625,-0.5365447998046875,1554711002.2577028
-0.067352294921875,-0.1561737060546875,-1.1699981689453125,1554711002.457741
-0.0667266845703125,-0.16644287109375,-0.8379058837890625,1554711002.659095
-0.0171661376953125,-0.2272796630859375,-0.9626617431640625,1554711002.8600578
0.1552886962890625,-0.2244720458984375,-1.0080718994140625,1554711003.061157
0.07989501953125,-0.2090911865234375,-0.66046142578125,1554711003.262099
-0.1119384765625,-0.0621337890625,-1.2169036865234375,1554711003.463615
-0.052276611328125,-0.18646240234375,-0.6263275146484375,1554711003.66499
-0.118499755859375,-0.1390380859375,-1.4072265625,1554711003.866084
-0.076904296875,-0.0722503662109375,-0.8843994140625,1554711004.067038
0.12530517578125,-0.216766357421875,-0.94427490234375,1554711004.267961
-0.0406341552734375,-0.0673980712890625,-1.218475341796875,1554711004.4692311
-0.0059814453125,-0.2423858642578125,-0.663421630859375,1554711004.6709561
-0.012908935546875,-0.0829925537109375,-1.3555145263671875,1554711004.872371
0.0308380126953125,-0.0830078125,-0.70147705078125,1554711005.073546
0.102386474609375,-0.1701202392578125,-0.950439453125,1554711005.274664
0.016632080078125,-0.0350189208984375,-1.448486328125,1554711005.475957
0.012664794921875,-0.17236328125,-0.6037445068359375,1554711005.677067
-0.014373779296875,-0.2376708984375,-1.438568115234375,1554711005.8782802
-0.0319366455078125,-0.0954437255859375,-0.7694244384765625,1554711006.079414
0.06976318359375,-0.146728515625,-0.887786865234375,1554711006.28036
-0.049530029296875,-0.020477294921875,-1.529541015625,1554711006.481505
-0.0133514404296875,-0.260986328125,-0.6308746337890625,1554711006.683018
0.0320281982421875,-0.1334991455078125,-1.2601470947265625,1554711006.884334
-0.0991363525390625,-0.05169677734375,-0.7649688720703125,1554711007.085635
0.002197265625,-0.1590728759765625,-0.9979248046875,1554711007.2871552
-0.2762908935546875,-0.1903076171875,-1.03253173828125,1554711007.488151
-0.10430908203125,-0.22735595703125,-0.77276611328125,1554711007.6896791
0.003631591796875,-0.1619720458984375,-1.3059539794921875,1554711007.891385
-0.001190185546875,-0.17254638671875,-0.4944915771484375,1554711008.091823
-0.0381317138671875,0.06561279296875,-1.5719451904296875,1554711008.292649
-0.2633514404296875,-0.1454010009765625,-0.888153076171875,1554711008.493882
-0.0387115478515625,-0.126495361328125,-1.0373077392578125,1554711008.695444
0.0692901611328125,-0.0361480712890625,-1.302490234375,1554711008.89691
0.076141357421875,-0.2201080322265625,-0.4512176513671875,1554711009.0981622
-0.001495361328125,-0.15057373046875,-1.342498779296875,1554711009.299021
-0.0707244873046875,-0.2312164306640625,-0.713714599609375,1554711009.500486
-0.0419921875,-0.382537841796875,-0.83270263671875,1554711009.701669
0.1107635498046875,-0.2027130126953125,-1.1094207763671875,1554711009.903614
-0.00323486328125,-0.2528839111328125,-0.5889129638671875,1554711010.104296
-0.1576690673828125,-0.026214599609375,-1.37579345703125,1554711010.3048801
0.0147705078125,-0.1920318603515625,-0.68011474609375,1554711010.506122
-0.1510772705078125,-0.0900726318359375,-1.3704071044921875,1554711010.707895
-0.02490234375,-0.095245361328125,-1.1858673095703125,1554711010.9087229
0.0477752685546875,-0.19024658203125,-0.6622161865234375,1554711011.110445
-0.0084991455078125,-0.134735107421875,-1.187103271484375,1554711011.311441
-0.1329498291015625,-0.26690673828125,-0.57366943359375,1554711011.512735
0.1012420654296875,-0.0260772705078125,-1.479827880859375,1554711011.714134
-0.0440826416015625,-0.0422210693359375,-0.778778076171875,1554711011.915354
0.1829681396484375,-0.083160400390625,-0.97833251953125,1554711012.116514
-0.3212738037109375,0.0072479248046875,-1.4474639892578125,1554711012.317136
0.0301361083984375,-0.1767120361328125,-0.670379638671875,1554711012.518363
-0.03509521484375,-0.095062255859375,-1.1065826416015625,1554711012.7203798
-0.0169525146484375,-0.1890716552734375,-0.625335693359375,1554711012.9212232
-0.0418548583984375,-0.009185791015625,-1.1701812744140625,1554711013.122726
-0.2869720458984375,-0.003570556640625,-1.157684326171875,1554711013.32403
-0.0839691162109375,-0.1490325927734375,-0.770172119140625,1554711013.525367
-0.0794830322265625,0.0149383544921875,-1.494781494140625,1554711013.7262778
-0.0426788330078125,-0.1647491455078125,-0.524322509765625,1554711013.927429
-0.132568359375,-0.0036163330078125,-1.1010589599609375,1554711014.1288419
-0.210784912109375,-0.0771331787109375,-0.965240478515625,1554711014.329373
-0.148956298828125,-0.1136474609375,-0.8887481689453125,1554711014.530626
0.0993499755859375,-0.041168212890625,-1.303863525390625,1554711014.7320929
0.0306549072265625,-0.1658782958984375,-0.510589599609375,1554711014.933712
-0.1849365234375,0.057098388671875,-1.19842529296875,1554711015.134707
-0.12432861328125,-0.23406982421875,-0.69439697265625,1554711015.3360271
-0.0043182373046875,-0.1595001220703125,-1.1178436279296875,1554711015.53789
-0.0990753173828125,-0.08111572265625,-1.0543670654296875,1554711015.7386541
0.03729248046875,-0.19317626953125,-0.5756378173828125,1554711015.9399219
-0.1927032470703125,-0.00164794921875,-1.297088623046875,1554711016.141187
-0.032073974609375,-0.2162933349609375,-0.591949462890625,1554711016.341711
-0.1373443603515625,-0.0450592041015625,-1.3223876953125,1554711016.542932
0.04034423828125,-0.123870849609375,-0.812652587890625,1554711016.7444968
-0.012664794921875,-0.003204345703125,-0.986358642578125,1554711016.946087
-0.18011474609375,0.07366943359375,-1.5040435791015625,1554711017.147356
-0.0493316650390625,-0.18768310546875,-0.591522216796875,1554711017.348269
-0.0328521728515625,-0.1339874267578125,-1.371917724609375,1554711017.549531
-0.046539306640625,-0.1238250732421875,-0.4955902099609375,1554711017.750761
-0.0755767822265625,-0.0638580322265625,-1.04461669921875,1554711017.951968
-0.2577362060546875,-0.11737060546875,-1.11126708984375,1554711018.15596
0.0093841552734375,-0.10809326171875,-0.89447021484375,1554711018.353942
0.126556396484375,-0.1096649169921875,-1.1534271240234375,1554711018.5553808
0.0704345703125,-0.147064208984375,-0.4548797607421875,1554711018.756905
0.0572357177734375,-0.0258941650390625,-1.3712615966796875,1554711018.9583712
-0.1483001708984375,-0.0867767333984375,-0.84344482421875,1554711019.159255
0.0380859375,-0.110595703125,-1.1071929931640625,1554711019.360725
-0.0145263671875,-0.124755859375,-1.2295989990234375,1554711019.5618892
0.029022216796875,-0.1172332763671875,-0.4142608642578125,1554711019.7631679
-0.1433868408203125,-0.0533599853515625,-1.342071533203125,1554711019.964397
-0.1503448486328125,-0.1588897705078125,-0.6475677490234375,1554711020.166224
0.075469970703125,-0.110137939453125,-1.26513671875,1554711020.366185
-0.0504913330078125,-0.115264892578125,-1.151397705078125,1554711020.567706
0.021331787109375,-0.199615478515625,-0.4276580810546875,1554711020.769185
-0.0835113525390625,0.0302886962890625,-1.5158843994140625,1554711020.9703388
-0.051513671875,-0.221435546875,-0.5555572509765625,1554711021.171601
-0.0278472900390625,0.0538787841796875,-1.483428955078125,1554711021.3729482
-0.143463134765625,-0.1348419189453125,-1.0963287353515625,1554711021.574541
0.0755462646484375,-0.101318359375,-0.7287139892578125,1554711021.775597
-0.0277557373046875,0.071685791015625,-1.4657745361328125,1554711021.976517
-0.0758056640625,-0.22802734375,-0.533935546875,1554711022.1776872
0.13299560546875,-0.1382598876953125,-1.3457183837890625,1554711022.378543
0.0348968505859375,-0.048126220703125,-0.731964111328125,1554711022.579957
0.0895843505859375,-0.0999603271484375,-0.915771484375,1554711022.781272
-0.0244598388671875,0.13238525390625,-1.543914794921875,1554711022.982595
-0.04888916015625,-0.2371826171875,-0.6404571533203125,1554711023.183848
0.033905029296875,-0.1671142578125,-1.2874603271484375,1554711023.385149
0.0380096435546875,-0.1070556640625,-0.7009124755859375,1554711023.586299
-0.0901336669921875,-0.1482086181640625,-1.10833740234375,1554711023.788203
-0.1391448974609375,-0.13140869140625,-0.8282470703125,1554711023.9888291
-0.06927490234375,-0.2831268310546875,-0.9970703125,1554711024.191124
0.0601806640625,-0.12396240234375,-1.1389007568359375,1554711024.3908849
-0.00994873046875,-0.2540283203125,-0.58447265625,1554711024.592249
-0.1504669189453125,-0.092620849609375,-1.333831787109375,1554711024.793762
0.052734375,-0.1736602783203125,-0.59197998046875,1554711024.9951072
-0.173004150390625,-0.058197021484375,-1.352569580078125,1554711025.1960192
0.0247650146484375,-0.102294921875,-1.085205078125,1554711025.397527
0.136199951171875,-0.09576416015625,-0.740478515625,1554711025.598573
-0.2419586181640625,0.099639892578125,-1.4586334228515625,1554711025.799829
-0.0868988037109375,-0.213592529296875,-0.65478515625,1554711026.001089
-0.0727081298828125,-0.025665283203125,-1.3095703125,1554711026.230742
0.0081939697265625,-0.024383544921875,-0.718353271484375,1554711026.403115
-0.0589599609375,-0.1141815185546875,-1.0097808837890625,1554711026.604968
-0.23492431640625,-0.0233154296875,-1.1407318115234375,1554711026.806098
-0.0397186279296875,-0.2075653076171875,-0.68463134765625,1554711027.009737
-0.186431884765625,-0.062896728515625,-1.372894287109375,1554711027.208386
-0.0180511474609375,-0.087799072265625,-0.60009765625,1554711027.410142
-0.1117095947265625,0.01934814453125,-1.136260986328125,1554711027.61104
-0.1485443115234375,-0.211822509765625,-0.993499755859375,1554711027.81219
0.0378265380859375,0.0404510498046875,-1.238525390625,1554711028.013427
-0.019317626953125,-0.162322998046875,-1.0728912353515625,1554711028.223765
-0.0868072509765625,-0.158538818359375,-0.41424560546875,1554711028.415309
0.008575439453125,0.0070648193359375,-1.2945709228515625,1554711028.616788
-0.14422607421875,-0.2641143798828125,-0.734039306640625,1554711028.818264
-0.2916717529296875,0.089569091796875,-1.63433837890625,1554711029.019469
-0.0389556884765625,-0.0392608642578125,-1.229034423828125,1554711029.2205958
-0.0357208251953125,-0.32061767578125,-0.283905029296875,1554711029.422566
-0.1631927490234375,0.0749969482421875,-1.5630645751953125,1554711029.623297
-0.1966094970703125,-0.2508544921875,-0.528045654296875,1554711029.8246489
0.019500732421875,0.0148773193359375,-1.58636474609375,1554711030.026087
-0.0548553466796875,-0.0509185791015625,-0.946380615234375,1554711030.2279038
0.0625,-0.161346435546875,-0.7861480712890625,1554711030.427702
-0.040069580078125,0.0342254638671875,-1.59881591796875,1554711030.629142
-0.0707855224609375,-0.275604248046875,-0.414306640625,1554711030.8304992
0.11865234375,-0.200531005859375,-1.351043701171875,1554711031.031571
0.017822265625,-0.059417724609375,-0.7021942138671875,1554711031.232471
0.0177764892578125,-0.1939544677734375,-0.8700408935546875,1554711031.4337401
0.0493927001953125,0.1088714599609375,-1.5381317138671875,1554711031.6355171
-0.0644378662109375,-0.19061279296875,-0.7686004638671875,1554711031.836475
0.028656005859375,-0.1010894775390625,-1.260009765625,1554711032.037898
0.042236328125,-0.1334381103515625,-0.6971435546875,1554711032.238702
-0.0181884765625,0.006591796875,-1.0207366943359375,1554711032.439935
-0.356170654296875,-0.2716827392578125,-0.926483154296875,1554711032.641639
0.0386810302734375,-0.0708160400390625,-1.2148590087890625,1554711032.842849
0.1580352783203125,-0.1849822998046875,-1.1143646240234375,1554711033.044229
0.0370025634765625,-0.208526611328125,-0.565216064453125,1554711033.245233
-0.063232421875,-0.208709716796875,-1.2476654052734375,1554711033.446631
-0.086883544921875,-0.2427825927734375,-0.616302490234375,1554711033.6478992
0.0067901611328125,-0.26953125,-1.2510528564453125,1554711033.849156
-0.0680084228515625,-0.1309814453125,-0.760894775390625,1554711034.0504131
0.1011199951171875,-0.14111328125,-0.972625732421875,1554711034.250873
-0.13128662109375,0.107147216796875,-1.506378173828125,1554711034.452182
-0.0766143798828125,-0.2507781982421875,-0.6226043701171875,1554711034.6535912
0.085906982421875,-0.1460723876953125,-1.3328857421875,1554711034.8549871
0.0378570556640625,-0.107452392578125,-0.507354736328125,1554711035.056514
-0.0459442138671875,-0.1297760009765625,-1.129791259765625,1554711035.257547
-0.2570648193359375,0.0048980712890625,-0.8555908203125,1554711035.459066
0.0850372314453125,-0.1394805908203125,-0.942169189453125,1554711035.660742
0.2107391357421875,-0.06756591796875,-1.2206573486328125,1554711035.861215
0.1422119140625,-0.17767333984375,-0.5327606201171875,1554711036.0625892
-0.13092041015625,0.06976318359375,-1.438446044921875,1554711036.263201
-0.043914794921875,-0.192596435546875,-0.634735107421875,1554711036.464472
0.0325927734375,-0.1466064453125,-1.160125732421875,1554711036.665787
0.000823974609375,0.017578125,-1.0513916015625,1554711036.867521
0.0892333984375,-0.1577911376953125,-0.800628662109375,1554711037.06868
-0.17535400390625,0.0886077880859375,-1.4419708251953125,1554711037.269476
0.07843017578125,-0.1815185546875,-0.6376495361328125,1554711037.470875
-0.0914306640625,-0.0756683349609375,-1.1660308837890625,1554711037.674193
0.10430908203125,-0.10467529296875,-0.72509765625,1554711037.87354
-0.0318756103515625,-0.0406341552734375,-0.99169921875,1554711038.0749202
-0.16424560546875,0.0878143310546875,-1.253662109375,1554711038.275478
-0.033355712890625,-0.1702423095703125,-0.834228515625,1554711038.476696
0.0193023681640625,0.013641357421875,-1.3938446044921875,1554711038.678359
-0.0206756591796875,-0.10101318359375,-0.6444854736328125,1554711038.8796759
-0.0786590576171875,0.0822601318359375,-1.08447265625,1554711039.0810518
-0.3122711181640625,-0.147247314453125,-0.950103759765625,1554711039.282071
0.055816650390625,-0.013336181640625,-1.2158966064453125,1554711039.4832249
0.1197052001953125,0.061370849609375,-1.4511260986328125,1554711039.684651
-0.0108795166015625,-0.132080078125,-0.4927215576171875,1554711039.885556
-0.022857666015625,0.1244964599609375,-1.48175048828125,1554711040.087007
-0.1805419921875,-0.26116943359375,-0.570037841796875,1554711040.287689
-0.0535888671875,-0.0110626220703125,-1.318206787109375,1554711040.488961
-0.170257568359375,-0.01019287109375,-0.9012451171875,1554711040.690563
-0.1155853271484375,-0.01361083984375,-0.8558197021484375,1554711040.892565
-0.048431396484375,0.113311767578125,-1.491302490234375,1554711041.093422
-0.14019775390625,-0.1744232177734375,-0.6497955322265625,1554711041.294674
-0.1741790771484375,0.00555419921875,-1.445220947265625,1554711041.4956698
0.0808258056640625,-0.0621337890625,-1.0146942138671875,1554711041.696873
-0.1633453369140625,0.1615142822265625,-0.8354034423828125,1554711041.898261
-0.2856292724609375,-0.123809814453125,-1.0426025390625,1554711042.099325
-0.0633544921875,-0.1969451904296875,-1.0466156005859375,1554711042.299953
-0.0545196533203125,-0.03515625,-1.25506591796875,1554711042.501256
-0.0731201171875,-0.141937255859375,-0.3189697265625,1554711042.702616
-0.0799713134765625,0.0683441162109375,-1.551055908203125,1554711042.904235
-0.2387542724609375,-0.164459228515625,-0.644866943359375,1554711043.105507
-0.1350860595703125,0.0244903564453125,-1.4293975830078125,1554711043.3071399
-0.110504150390625,0.0321807861328125,-1.22467041015625,1554711043.507893
0.03240966796875,-0.1995697021484375,-0.5222015380859375,1554711043.709311
-0.1404266357421875,0.17938232421875,-1.7948455810546875,1554711043.910616
-0.0657958984375,-0.2648162841796875,-0.4554290771484375,1554711044.111624
0.0211944580078125,-0.1518707275390625,-1.3460693359375,1554711044.312314
0.00927734375,-0.086273193359375,-0.743133544921875,1554711044.513598
0.012725830078125,-0.081085205078125,-0.945465087890625,1554711044.7149382
-0.3020172119140625,0.034271240234375,-1.3914947509765625,1554711044.916493
-0.0398101806640625,-0.2007904052734375,-0.6358642578125,1554711045.117701
-0.0276336669921875,-0.1120758056640625,-1.2413482666015625,1554711045.318933
0.074859619140625,-0.1069793701171875,-0.5460052490234375,1554711045.5201411
-0.0750885009765625,-0.0869293212890625,-1.1674041748046875,1554711045.721463
-0.251678466796875,-0.0800933837890625,-0.86041259765625,1554711045.922492
0.0980072021484375,-0.1394805908203125,-1.042144775390625,1554711046.124123
0.171905517578125,-0.1470794677734375,-1.0745391845703125,1554711046.3246288
0.055023193359375,-0.1600341796875,-0.5491485595703125,1554711046.525797
-0.11444091796875,0.0197296142578125,-1.275634765625,1554711046.7274508
-0.0382537841796875,-0.2322845458984375,-0.570068359375,1554711046.9286752
-0.122406005859375,0.10882568359375,-1.372100830078125,1554711047.130001
-0.011383056640625,-0.0119171142578125,-1.232391357421875,1554711047.331275
0.0402069091796875,-0.233489990234375,-0.5449066162109375,1554711047.532453
-0.19659423828125,0.0125274658203125,-1.210723876953125,1554711047.733474
-0.0854034423828125,-0.190948486328125,-0.6036834716796875,1554711047.9349751
0.1029205322265625,-0.063140869140625,-1.170623779296875,1554711048.135902
0.0284271240234375,0.1735992431640625,-1.7885894775390625,1554711048.33679
-0.06884765625,-0.0194854736328125,-0.6017608642578125,1554711048.537888
-0.2174224853515625,0.1695556640625,-1.4157562255859375,1554711048.739336
-0.2000885009765625,-0.1305999755859375,-0.611480712890625,1554711048.941174
0.2152862548828125,-0.113067626953125,-1.19805908203125,1554711049.142198
-0.146209716796875,0.0716705322265625,-1.0501708984375,1554711049.343546
-0.017333984375,-0.0123443603515625,-0.7923126220703125,1554711049.545309
-0.20751953125,0.1436920166015625,-1.29766845703125,1554711049.745754
-0.23681640625,-0.1917266845703125,-0.6270294189453125,1554711049.947257
0.0696258544921875,-0.1602783203125,-1.157623291015625,1554711050.1502929
-0.2026519775390625,0.012939453125,-0.802490234375,1554711050.3489609
0.00390625,-0.0494537353515625,-0.7419891357421875,1554711050.55021
-0.3197021484375,0.164794921875,-1.3343658447265625,1554711050.751902
-0.0067138671875,-0.2744598388671875,-0.8056793212890625,1554711050.953311
0.053924560546875,-0.0083465576171875,-1.3621368408203125,1554711051.154698
0.05889892578125,0.0663604736328125,-0.7413330078125,1554711051.355586
0.0908355712890625,-0.063018798828125,-0.9831390380859375,1554711051.557928
-0.03411865234375,-0.0157012939453125,-1.375579833984375,1554711051.75808
-0.004852294921875,-0.250762939453125,-0.530487060546875,1554711051.959672
-0.0284271240234375,-0.0720977783203125,-1.479736328125,1554711052.160825
-0.013458251953125,-0.0712127685546875,-0.6888427734375,1554711052.3612561
-0.07086181640625,-0.009552001953125,-1.129425048828125,1554711052.562757
-0.2796173095703125,-0.0810699462890625,-0.9384002685546875,1554711052.764285
0.1413421630859375,-0.1356658935546875,-1.0446319580078125,1554711052.9652538
0.2606353759765625,-0.063690185546875,-1.321807861328125,1554711053.166306
0.1134033203125,-0.170440673828125,-0.5252838134765625,1554711053.367931
-0.0143585205078125,-0.102691650390625,-1.2916717529296875,1554711053.5692558
-0.1767730712890625,-0.10443115234375,-0.8957061767578125,1554711053.7703671
0.0531463623046875,-0.2035064697265625,-0.8411407470703125,1554711053.971689
0.0701141357421875,-0.04132080078125,-1.258392333984375,1554711054.172668
0.0596771240234375,-0.0800018310546875,-0.7949066162109375,1554711054.37353
-0.01019287109375,-0.0655975341796875,-1.0352783203125,1554711054.574782
-0.2614288330078125,-0.00885009765625,-1.051544189453125,1554711054.77649
0.013671875,-0.1272430419921875,-0.7484130859375,1554711054.977937
0.2044677734375,0.002899169921875,-1.4635009765625,1554711055.178644
-0.0128021240234375,-0.107696533203125,-0.66986083984375,1554711055.380261
0.0276641845703125,-0.0056610107421875,-1.0153656005859375,1554711055.581537
-0.2503814697265625,-0.088592529296875,-1.1184234619140625,1554711055.782618
0.0363006591796875,-0.1536865234375,-0.876495361328125,1554711055.983964
-0.17645263671875,-0.0124053955078125,-1.3713226318359375,1554711056.2269912
-0.0625762939453125,-0.0319976806640625,-0.830718994140625,1554711056.385754
-0.00238037109375,-0.0816192626953125,-1.0234527587890625,1554711056.587144
0.106475830078125,-0.157562255859375,-0.8824615478515625,1554711056.788513
0.0974578857421875,-0.0771026611328125,-1.315216064453125,1554711056.989836
-0.173675537109375,-0.1298370361328125,-0.9970550537109375,1554711057.191174
0.0225372314453125,-0.19879150390625,-0.6002044677734375,1554711057.392618
-0.1085968017578125,-0.0260772705078125,-1.212554931640625,1554711057.593872
-0.01318359375,-0.0663604736328125,-0.7460174560546875,1554711057.794905
0.0528106689453125,-0.09002685546875,-1.036346435546875,1554711057.9962769
0.0530548095703125,-0.020721435546875,-1.2226409912109375,1554711058.197431
0.0926971435546875,-0.035675048828125,-0.6431121826171875,1554711058.398796
-0.1626739501953125,0.0761260986328125,-1.09832763671875,1554711058.600224
-0.319427490234375,-0.0723724365234375,-1.0803680419921875,1554711058.801094
-0.0718841552734375,-0.1221923828125,-0.83831787109375,1554711059.002264
-0.0056304931640625,0.1747589111328125,-1.48223876953125,1554711059.2160769
-0.12481689453125,-0.050567626953125,-0.75494384765625,1554711059.404111
0.0339813232421875,-0.0791778564453125,-0.7518157958984375,1554711059.605541
-0.15667724609375,-0.014617919921875,-1.217987060546875,1554711059.806973
0.1420745849609375,-0.2144775390625,-0.9368438720703125,1554711060.01026
0.2941436767578125,-0.0361785888671875,-1.197265625,1554711060.209821
-0.041778564453125,-0.083892822265625,-0.654296875,1554711060.410629
0.17938232421875,-0.2704620361328125,-0.8903961181640625,1554711060.612164
-0.132476806640625,-0.1010284423828125,-1.1212615966796875,1554711060.813264
0.22723388671875,-0.199432373046875,-0.7668914794921875,1554711061.0144958
-0.1020965576171875,-0.019775390625,-1.05206298828125,1554711061.226098
0.0826416015625,-0.052154541015625,-0.8698883056640625,1554711061.4164848
-0.0188751220703125,-0.200531005859375,-1.1994781494140625,1554711061.617861
-0.0458831787109375,-0.311767578125,-0.7361907958984375,1554711061.8195791
-0.074676513671875,-0.1455230712890625,-1.3660888671875,1554711062.0203109
0.0765838623046875,-0.352020263671875,-0.7028656005859375,1554711062.222094
0.1548309326171875,-0.0662994384765625,-1.316650390625,1554711062.4232678
-0.1975555419921875,-0.09295654296875,-0.850799560546875,1554711062.624226
0.125701904296875,-0.2199859619140625,-1.05242919921875,1554711062.8254619
-0.0791473388671875,-0.0049285888671875,-1.272796630859375,1554711063.026667
0.0213623046875,-0.22161865234375,-0.4483795166015625,1554711063.231982
-0.1745758056640625,-0.0111083984375,-1.1868896484375,1554711063.428708
-0.0984344482421875,-0.2767333984375,-0.5621337890625,1554711063.630194
-0.0646514892578125,0.0268707275390625,-1.556396484375,1554711063.831777
-0.017181396484375,0.001007080078125,-0.91058349609375,1554711064.033043
0.0677490234375,-0.1730804443359375,-0.6937255859375,1554711064.234041
-0.2712249755859375,0.1688385009765625,-1.5637664794921875,1554711064.435227
-0.0537567138671875,-0.220672607421875,-0.6266937255859375,1554711064.636405
-0.0096588134765625,-0.0312652587890625,-1.22711181640625,1554711064.837864
-0.001617431640625,-0.1370697021484375,-0.5676116943359375,1554711065.038759
-0.1831512451171875,0.068878173828125,-1.25909423828125,1554711065.24621
-0.2416839599609375,-0.013153076171875,-0.896484375,1554711065.440934
-0.09051513671875,-0.2007598876953125,-0.852294921875,1554711065.64238
-0.09539794921875,-0.010589599609375,-1.3952789306640625,1554711065.843863
-0.0113067626953125,-0.1360321044921875,-0.4172821044921875,1554711066.044901
-0.2606658935546875,0.0697021484375,-1.217132568359375,1554711066.246392
-0.21173095703125,-0.1251678466796875,-0.89117431640625,1554711066.4476829
-0.0203857421875,-0.0642242431640625,-1.163360595703125,1554711066.648793
-0.20782470703125,0.0504913330078125,-1.2579345703125,1554711066.8502898
-0.023101806640625,-0.14959716796875,-0.42889404296875,1554711067.051542
-0.184783935546875,0.1315155029296875,-1.3797454833984375,1554711067.251904
-0.2340545654296875,-0.2944488525390625,-0.4990692138671875,1554711067.453175
-0.08953857421875,0.1234588623046875,-1.667724609375,1554711067.654688
-0.1992645263671875,-0.037933349609375,-0.8453826904296875,1554711067.856282
-0.014190673828125,-0.134674072265625,-0.6328277587890625,1554711068.057064
-0.5056915283203125,0.213623046875,-1.74298095703125,1554711068.258831
-0.0193634033203125,-0.3346710205078125,-0.40972900390625,1554711068.45981
-0.2711334228515625,-0.06121826171875,-1.167633056640625,1554711068.661233
0.0397796630859375,-0.12713623046875,-0.6488494873046875,1554711068.862288
-0.3285675048828125,-0.0319671630859375,-1.01873779296875,1554711069.063613
-0.4063720703125,0.0350799560546875,-1.14544677734375,1554711069.2641702
-0.35308837890625,-0.2555389404296875,-0.7870025634765625,1554711069.465424
-0.0479278564453125,-0.0100250244140625,-1.3747100830078125,1554711069.667255
-0.0445556640625,-0.0741119384765625,-0.424224853515625,1554711069.868672
-0.20660400390625,0.055572509765625,-1.26397705078125,1554711070.069707
-0.3513946533203125,-0.1984405517578125,-0.7769927978515625,1554711070.2708669
-0.2386322021484375,-0.0299072265625,-1.4286956787109375,1554711070.472142
-0.0372467041015625,0.0066070556640625,-1.27630615234375,1554711070.673352
-0.1059722900390625,-0.159149169921875,-0.484710693359375,1554711070.874399
-0.1479644775390625,0.0697174072265625,-1.1150360107421875,1554711071.076062
-0.281646728515625,-0.13665771484375,-0.7299652099609375,1554711071.276452
-0.2823486328125,0.0561981201171875,-1.4734649658203125,1554711071.477781
-0.2603607177734375,0.078094482421875,-1.14794921875,1554711071.679254
-0.0082244873046875,-0.1123809814453125,-0.3199462890625,1554711071.880608
-0.308807373046875,0.207244873046875,-1.2940673828125,1554711072.081936
-0.320098876953125,-0.301361083984375,-0.750091552734375,1554711072.283196
-0.456329345703125,0.172882080078125,-1.482666015625,1554711072.48449
-0.1981353759765625,0.160736083984375,-1.5839691162109375,1554711072.685653
-0.29937744140625,-0.28839111328125,-0.4227447509765625,1554711072.8868299
-0.3461151123046875,0.080780029296875,-1.2048797607421875,1554711073.088097
-0.3240509033203125,-0.3077239990234375,-0.555084228515625,1554711073.288684
-0.249298095703125,-0.0120697021484375,-1.5365142822265625,1554711073.489933
-0.343505859375,-0.011260986328125,-0.79254150390625,1554711073.6914701
-0.0994720458984375,-0.12481689453125,-0.6825103759765625,1554711073.893039
-0.249908447265625,0.1159210205078125,-1.7250518798828125,1554711074.094102
-0.0817718505859375,-0.228973388671875,-0.4724273681640625,1554711074.2953029
-0.0441741943359375,-0.1280517578125,-1.332000732421875,1554711074.496441
-0.143341064453125,-0.0418243408203125,-0.87847900390625,1554711074.697859
-0.02947998046875,-0.17474365234375,-0.7091217041015625,1554711074.899167
-0.5781707763671875,0.1603851318359375,-1.475189208984375,1554711075.100297
-0.0050048828125,-0.2166748046875,-0.632904052734375,1554711075.300888
-0.218048095703125,-0.0571441650390625,-0.900909423828125,1554711075.5021539
-0.1840057373046875,-0.1043701171875,-0.652587890625,1554711075.703864
-0.1752166748046875,-0.0565948486328125,-0.822296142578125,1554711075.905175
-0.43475341796875,0.050262451171875,-1.28057861328125,1554711076.106079
-0.18328857421875,-0.197021484375,-0.5198974609375,1554711076.3073668
-0.2967987060546875,-0.0411376953125,-1.1896514892578125,1554711076.508764
-0.0845794677734375,-0.11260986328125,-0.718597412109375,1554711076.709896
-0.39129638671875,0.0805206298828125,-0.933380126953125,1554711076.91132
-0.534454345703125,0.091064453125,-1.007598876953125,1554711077.112467
-0.166717529296875,-0.13641357421875,-0.7486572265625,1554711077.3131618
-0.2852020263671875,0.0481414794921875,-1.33843994140625,1554711077.5145059
-0.1094818115234375,-0.0907745361328125,-0.479034423828125,1554711077.715888
-0.284820556640625,0.008880615234375,-0.9548492431640625,1554711077.917402
-0.3463897705078125,-0.0268402099609375,-0.893341064453125,1554711078.119076
-0.0887298583984375,-0.1379547119140625,-0.882476806640625,1554711078.319241
0.015838623046875,0.0052947998046875,-1.175994873046875,1554711078.520447
-0.087982177734375,-0.0911712646484375,-0.510162353515625,1554711078.7221088
-0.07672119140625,0.0130462646484375,-1.1914520263671875,1554711078.923645
-0.3760986328125,0.0001983642578125,-1.0087127685546875,1554711079.1245399
-0.08837890625,-0.1303558349609375,-0.7756805419921875,1554711079.325861
-0.119720458984375,0.056243896484375,-1.354095458984375,1554711079.52743
-0.0455474853515625,-0.1676177978515625,-0.536224365234375,1554711079.728403
-0.1472930908203125,0.0466461181640625,-1.038421630859375,1554711079.929533
-0.48468017578125,-0.0536956787109375,-0.968505859375,1554711080.13064
-0.1363983154296875,-0.1076812744140625,-0.76043701171875,1554711080.331616
-0.1689300537109375,0.045074462890625,-1.43096923828125,1554711080.532775
-0.04656982421875,-0.051849365234375,-0.5544281005859375,1554711080.734499
-0.175018310546875,0.1014404296875,-1.2552337646484375,1554711080.93618
-0.399993896484375,0.0090484619140625,-1.030426025390625,1554711081.136903
-0.05657958984375,-0.187408447265625,-0.7796630859375,1554711081.33828
-0.128814697265625,-0.0035552978515625,-1.2680206298828125,1554711081.539468
-0.178558349609375,-0.1164398193359375,-0.6130828857421875,1554711081.7405682
0.1298828125,0.02691650390625,-1.24993896484375,1554711081.941592
-0.3402099609375,0.019287109375,-0.8506927490234375,1554711082.142828
-0.1475982666015625,-0.150360107421875,-0.971466064453125,1554711082.3437881
-0.0864715576171875,0.1188507080078125,-1.2281494140625,1554711082.545096
0.011199951171875,-0.2490386962890625,-0.5641632080078125,1554711082.746807
-0.2861328125,0.115631103515625,-1.11614990234375,1554711082.9480882
-0.258331298828125,0.0015716552734375,-0.9588165283203125,1554711083.155048
-0.1125946044921875,-0.0475006103515625,-0.936553955078125,1554711083.3506541
-0.082611083984375,0.06610107421875,-1.2775726318359375,1554711083.5517302
-0.00714111328125,-0.0722808837890625,-0.5006256103515625,1554711083.752912
-0.2943572998046875,0.160614013671875,-1.29052734375,1554711083.9542332
-0.208099365234375,-0.0223541259765625,-0.933624267578125,1554711084.1554852
-0.11029052734375,-0.0437774658203125,-1.0153656005859375,1554711084.3560581
0.0481414794921875,0.0574493408203125,-1.24822998046875,1554711084.5573
-0.004425048828125,-0.0115966796875,-0.390625,1554711084.758877
-0.0357666015625,0.178375244140625,-1.42547607421875,1554711084.960619
-0.3041229248046875,-0.00897216796875,-0.9888763427734375,1554711085.167886
-0.0803985595703125,-0.17742919921875,-0.9041595458984375,1554711085.362793
-0.1513519287109375,-0.0182037353515625,-1.1141510009765625,1554711085.563971
-0.0789337158203125,-0.047882080078125,-0.671173095703125,1554711085.764925
-0.0072479248046875,0.0818634033203125,-1.2220611572265625,1554711085.966477
-0.25732421875,0.078826904296875,-0.6719970703125,1554711086.167263
-0.2493896484375,0.0030517578125,-0.99609375,1554711086.368258
-0.1226806640625,0.149658203125,-1.2357025146484375,1554711086.56985
0.016357421875,-0.107513427734375,-0.5621185302734375,1554711086.771169
-0.1941680908203125,0.164215087890625,-1.193511962890625,1554711086.972484
-0.1631622314453125,-0.0352935791015625,-0.914794921875,1554711087.173465
-0.1670074462890625,-0.0750885009765625,-1.0908966064453125,1554711087.3746362
0.0213470458984375,0.031890869140625,-1.1738739013671875,1554711087.576097
0.016754150390625,-0.130401611328125,-0.5041656494140625,1554711087.77757
-0.2057342529296875,0.194366455078125,-1.326995849609375,1554711087.978652
-0.178497314453125,-0.1414031982421875,-0.7404632568359375,1554711088.232784
0.070465087890625,-0.104278564453125,-1.0463409423828125,1554711088.380608
-0.058319091796875,0.0510101318359375,-1.214691162109375,1554711088.58185
0.1080322265625,-0.1432952880859375,-0.5171661376953125,1554711088.7834601
-0.1855316162109375,0.0814208984375,-1.4164886474609375,1554711088.984932
-0.1038665771484375,-0.1963958740234375,-0.6773681640625,1554711089.18578
-0.056121826171875,0.0321044921875,-1.305511474609375,1554711089.387257
-0.0224609375,-0.020843505859375,-1.2164459228515625,1554711089.588475
0.02801513671875,-0.148681640625,-0.3881072998046875,1554711089.789682
-0.100006103515625,0.09381103515625,-1.419281005859375,1554711089.990701
-0.07562255859375,-0.0686187744140625,-0.81317138671875,1554711090.216032
0.08306884765625,-0.082061767578125,-0.995635986328125,1554711090.392832
0.1228485107421875,-0.0484771728515625,-1.198150634765625,1554711090.594271
0.004913330078125,-0.11871337890625,-0.52447509765625,1554711090.795841
0.033966064453125,0.0999755859375,-1.3790740966796875,1554711090.99733
-0.124725341796875,-0.09979248046875,-0.7779998779296875,1554711091.198121
0.12322998046875,-0.096435546875,-0.99127197265625,1554711091.3996692
0.042724609375,-0.1217193603515625,-1.097991943359375,1554711091.600841
0.068695068359375,-0.206878662109375,-0.6829681396484375,1554711091.802181
-0.0777740478515625,-0.109771728515625,-1.1016998291015625,1554711092.004637
-0.0099639892578125,-0.210235595703125,-0.8016815185546875,1554711092.206861
-0.03271484375,-0.2241363525390625,-1.2271575927734375,1554711092.405096
0.07757568359375,-0.1113433837890625,-1.002349853515625,1554711092.60638
0.05487060546875,-0.163818359375,-0.6497802734375,1554711092.807781
-0.0431671142578125,0.1271209716796875,-1.5543365478515625,1554711093.0092049
-0.025146484375,-0.1318817138671875,-0.552154541015625,1554711093.2101212
0.092681884765625,0.0238189697265625,-1.33941650390625,1554711093.4116359
-0.0191192626953125,0.051177978515625,-1.2359161376953125,1554711093.612704
-0.0152587890625,-0.100128173828125,-0.6621551513671875,1554711093.814285
-0.0114898681640625,0.1996917724609375,-1.4653167724609375,1554711094.01529
0.097900390625,-0.102203369140625,-0.8021087646484375,1554711094.2181811
-0.0063018798828125,-0.038970947265625,-1.150238037109375,1554711094.4173799
0.1123199462890625,-0.025726318359375,-1.15399169921875,1554711094.618696
0.027252197265625,-0.17474365234375,-0.6100006103515625,1554711094.820219
-0.0652313232421875,0.0331573486328125,-1.2647857666015625,1554711095.021318
-0.0178375244140625,-0.12078857421875,-0.9800262451171875,1554711095.222558
0.0524444580078125,-0.110015869140625,-0.84674072265625,1554711095.4240031
0.0315704345703125,0.0489501953125,-1.318511962890625,1554711095.625088
0.0174560546875,-0.0067901611328125,-0.876983642578125,1554711095.826357
0.1715545654296875,-0.0617523193359375,-0.987030029296875,1554711096.02816
-0.2065582275390625,0.0920867919921875,-1.2970733642578125,1554711096.228246
0.0833587646484375,-0.0012359619140625,-1.16839599609375,1554711096.429599
-0.1011505126953125,-0.02197265625,-1.010955810546875,1554711096.631075
-0.0166778564453125,-0.1295318603515625,-0.999755859375,1554711096.83255
0.1488800048828125,-0.1611480712890625,-0.851898193359375,1554711097.033852
0.238006591796875,-0.1505126953125,-0.788970947265625,1554711097.235106
0.0572967529296875,-0.1129608154296875,-1.04998779296875,1554711097.4363852
0.0937042236328125,-0.20416259765625,-0.99468994140625,1554711097.637381
0.0534515380859375,0.126617431640625,-1.49481201171875,1554711097.838716
0.0076904296875,-0.0990142822265625,-0.6504669189453125,1554711098.0398169
0.0240631103515625,-0.07879638671875,-1.1910552978515625,1554711098.240391
0.137115478515625,-0.0063934326171875,-1.04248046875,1554711098.441752
0.0352325439453125,-0.0549468994140625,-0.614959716796875,1554711098.643192
0.033905029296875,-0.159210205078125,-0.93817138671875,1554711098.845488
-0.217315673828125,-0.0295867919921875,-1.12811279296875,1554711099.045772
0.0721588134765625,-0.181549072265625,-0.5991973876953125,1554711099.247009
0.000518798828125,-0.1419525146484375,-1.4305419921875,1554711099.4482741
-0.0107421875,-0.0376129150390625,-0.904205322265625,1554711099.649708
0.0984954833984375,-0.1157989501953125,-0.9622802734375,1554711099.8509111
-0.141357421875,0.1374359130859375,-1.3693389892578125,1554711100.05194
0.02130126953125,-0.170135498046875,-0.5429229736328125,1554711100.252744
0.01922607421875,0.1485137939453125,-1.55010986328125,1554711100.454125
-0.0670623779296875,0.1046600341796875,-0.9043426513671875,1554711100.6553922
-0.0109710693359375,0.016021728515625,-0.9493408203125,1554711100.856749
-0.0313262939453125,0.187469482421875,-1.5728302001953125,1554711101.057887
0.074371337890625,-0.1890716552734375,-0.505828857421875,1554711101.259104
0.01739501953125,0.1010284423828125,-1.682708740234375,1554711101.460578
0.070770263671875,-6.103515625e-05,-0.6354217529296875,1554711101.661992
-0.1052398681640625,-0.003814697265625,-0.8743133544921875,1554711101.863
-0.1560516357421875,0.035919189453125,-1.201416015625,1554711102.064188
-0.068115234375,-0.1290283203125,-0.843170166015625,1554711102.265064
0.0708770751953125,0.0322113037109375,-1.2474365234375,1554711102.466354
-0.051849365234375,-0.1031036376953125,-0.4144439697265625,1554711102.667887
-0.1072540283203125,0.02685546875,-1.15045166015625,1554711102.869211
-0.30511474609375,-0.10565185546875,-0.9175872802734375,1554711103.0708098
0.1202239990234375,-0.1304779052734375,-1.0642852783203125,1554711103.271779
0.136016845703125,-0.071380615234375,-1.248931884765625,1554711103.472935
0.0578765869140625,-0.075897216796875,-0.4582061767578125,1554711103.67419
-0.01226806640625,0.1768798828125,-1.3824005126953125,1554711103.8753328
-0.03173828125,-0.285003662109375,-0.8104400634765625,1554711104.076431
-0.1036376953125,0.0287933349609375,-1.19305419921875,1554711104.277139
0.12261962890625,-0.1747283935546875,-1.200958251953125,1554711104.478499
0.025146484375,-0.1200408935546875,-0.411956787109375,1554711104.680038
0.007415771484375,0.0406951904296875,-1.3155670166015625,1554711104.881314
-0.10101318359375,-0.3157806396484375,-0.8536224365234375,1554711105.082477
0.075347900390625,-0.105499267578125,-1.2251739501953125,1554711105.2838058
-0.202606201171875,0.048126220703125,-0.6835174560546875,1554711105.4852371
-0.18194580078125,-0.3320159912109375,-0.7266845703125,1554711105.686199
-0.25250244140625,0.1216583251953125,-1.3763580322265625,1554711105.8877869
-0.0728302001953125,-0.1044921875,-0.5548095703125,1554711106.0888638
-0.0103607177734375,0.087066650390625,-1.487640380859375,1554711106.289418
-0.1828765869140625,-0.0163726806640625,-0.954345703125,1554711106.4907231
0.00128173828125,-0.0995025634765625,-0.498626708984375,1554711106.69221
-0.243988037109375,0.22613525390625,-1.6661834716796875,1554711106.8936
-0.05224609375,-0.25921630859375,-0.5482330322265625,1554711107.094619
-0.1066436767578125,0.2945709228515625,-1.5330963134765625,1554711107.2960029
-0.2267608642578125,-0.010345458984375,-1.1161956787109375,1554711107.4973311
0.0155487060546875,-0.1016693115234375,-0.74078369140625,1554711107.698717
-0.258392333984375,0.20880126953125,-1.5227813720703125,1554711107.899806
-0.1181640625,-0.20892333984375,-0.6258697509765625,1554711108.100834
-0.19677734375,0.11407470703125,-1.640716552734375,1554711108.302104
-0.2310943603515625,0.0321044921875,-1.0840911865234375,1554711108.503094
-0.02362060546875,-0.1587066650390625,-0.5841217041015625,1554711108.704555
-0.15045166015625,0.0728912353515625,-1.5208892822265625,1554711108.905805
-0.021759033203125,-0.16217041015625,-0.575653076171875,1554711109.107164
-0.2160797119140625,0.062774658203125,-1.7807464599609375,1554711109.3081431
-0.096160888671875,-0.0102996826171875,-0.96417236328125,1554711109.509632
0.0067138671875,-0.0305633544921875,-0.716583251953125,1554711109.7106872
-0.185943603515625,0.18359375,-1.609100341796875,1554711109.911917
-0.04644775390625,-0.2440948486328125,-0.518157958984375,1554711110.113069
0.0679473876953125,-0.0340118408203125,-1.464385986328125,1554711110.313966
-0.04217529296875,0.0648193359375,-0.84295654296875,1554711110.515271
0.019989013671875,-0.180267333984375,-0.6396026611328125,1554711110.716634
-0.0903778076171875,0.0493011474609375,-1.8478546142578125,1554711110.918329
-0.096038818359375,-0.220123291015625,-0.406158447265625,1554711111.11944
-0.0257110595703125,-0.2213897705078125,-1.3664398193359375,1554711111.3204489
-0.0050506591796875,-0.116455078125,-0.74554443359375,1554711111.522142
-0.11639404296875,-0.011566162109375,-1.103851318359375,1554711111.7229881
-0.3697052001953125,0.139556884765625,-1.407379150390625,1554711111.924251
-0.08697509765625,-0.2452392578125,-0.4847412109375,1554711112.125581
-0.099609375,-0.1597442626953125,-1.2554168701171875,1554711112.3260841
-0.10101318359375,0.0945892333984375,-1.0584564208984375,1554711112.527375
-0.028289794921875,-0.0468597412109375,-0.872711181640625,1554711112.7289171
-0.4225616455078125,0.003082275390625,-1.3029632568359375,1554711112.9306998
-0.184173583984375,-0.2562255859375,-0.4931488037109375,1554711113.132204
-0.1673736572265625,-0.1019744873046875,-1.36639404296875,1554711113.332767
-0.053009033203125,0.0114593505859375,-0.8973846435546875,1554711113.5346498
-0.039154052734375,-0.1953887939453125,-0.6687774658203125,1554711113.735251
-0.308380126953125,-0.00421142578125,-1.56085205078125,1554711113.936466
0.139404296875,-0.22955322265625,-0.539459228515625,1554711114.137816
-0.0262908935546875,-0.1954498291015625,-1.240875244140625,1554711114.338381
-0.13946533203125,-0.170867919921875,-0.918060302734375,1554711114.53959
-0.161224365234375,-0.0571441650390625,-0.7978515625,1554711114.741242
-0.3588104248046875,-0.06097412109375,-1.1851348876953125,1554711114.9426
-0.1375274658203125,-0.2533111572265625,-0.6231842041015625,1554711115.143876
-0.1890106201171875,-0.108917236328125,-1.422607421875,1554711115.344431
-0.0958404541015625,-0.0281219482421875,-0.7738189697265625,1554711115.545648
-0.1120147705078125,-0.1958465576171875,-0.782379150390625,1554711115.747171
-0.1852874755859375,0.036163330078125,-1.7091217041015625,1554711115.9489899
-0.04742431640625,-0.265045166015625,-0.439422607421875,1554711116.153099
-0.086669921875,-0.0417938232421875,-1.3498992919921875,1554711116.3509889
-0.130157470703125,-0.040985107421875,-0.83416748046875,1554711116.5523372
-0.1791534423828125,-0.0690460205078125,-0.9740753173828125,1554711116.7536712
-0.45806884765625,0.125274658203125,-1.2711334228515625,1554711116.955054
-0.192718505859375,-0.163909912109375,-0.6917877197265625,1554711117.1554608
-0.2239837646484375,-0.066070556640625,-0.988128662109375,1554711117.35673
-0.2191009521484375,-0.138946533203125,-0.840911865234375,1554711117.558084
-0.1422882080078125,-0.0687255859375,-0.9899444580078125,1554711117.7594619
-0.3419342041015625,0.047271728515625,-1.4026641845703125,1554711117.96094
-0.2542724609375,-0.2784576416015625,-0.545684814453125,1554711118.1701632
-0.1964874267578125,-0.03692626953125,-1.094879150390625,1554711118.36285
-0.2134857177734375,-0.0950775146484375,-0.8023834228515625,1554711118.564358
-0.048309326171875,-0.04779052734375,-0.7955322265625,1554711118.765846
-0.5385894775390625,0.0438690185546875,-1.1652374267578125,1554711118.9672341
-0.2281341552734375,-0.180084228515625,-0.6322784423828125,1554711119.1685681
-0.23394775390625,-0.0649566650390625,-1.2519989013671875,1554711119.369535
-0.1312255859375,-0.06451416015625,-0.70306396484375,1554711119.570821
-0.146697998046875,-0.062042236328125,-0.8657073974609375,1554711119.7720299
-0.200042724609375,0.1159210205078125,-1.3758392333984375,1554711119.9732718
-0.0880126953125,-0.201446533203125,-0.6463165283203125,1554711120.218876
-0.12152099609375,-0.0831146240234375,-1.2617034912109375,1554711120.375076
-0.073516845703125,-0.0328826904296875,-0.7159576416015625,1554711120.57647
-0.029510498046875,-0.095947265625,-1.0954437255859375,1554711120.7779222
-0.2382965087890625,-0.0461883544921875,-1.0165557861328125,1554711120.979202
0.0157928466796875,-0.2655792236328125,-0.6802825927734375,1554711121.180481
0.02581787109375,-0.0126495361328125,-1.364288330078125,1554711121.381835
-0.006439208984375,-0.120574951171875,-0.5617218017578125,1554711121.583092
-0.1036834716796875,-0.1525115966796875,-1.131927490234375,1554711121.784463
-0.2201995849609375,0.183258056640625,-1.10064697265625,1554711121.985197
0.0308837890625,-0.1352081298828125,-0.75482177734375,1554711122.2330499
-0.0352325439453125,0.10101318359375,-1.538818359375,1554711122.3873281
-0.04931640625,-0.104248046875,-0.8520355224609375,1554711122.588849
-0.1322479248046875,-0.1725311279296875,-1.0433807373046875,1554711122.790386
-0.2000732421875,-0.060272216796875,-1.1526336669921875,1554711122.9917312
0.0887908935546875,-0.3399505615234375,-0.5848846435546875,1554711123.1924639
0.0953521728515625,-0.159271240234375,-1.2738189697265625,1554711123.394051
-0.0778656005859375,-0.182037353515625,-0.6090545654296875,1554711123.5951629
-0.0149078369140625,-0.28753662109375,-1.1356353759765625,1554711123.7964082
0.00946044921875,-0.235107421875,-1.1671295166015625,1554711124.0015888
