gyro_x,gyro_y,gyro_z,timestamp
0.10368378545561895,-0.04816087146910195,0.44455189338700296,1554710800.228122
-0.36099148576024076,0.08262856756134349,0.09357735543487725,1554710800.419623
0.22625311146542582,-0.49654292313585685,-0.8572206885196862,1554710800.620671
0.4805069649480537,-0.5492575337528853,-0.6495942583504927,1554710800.821827
0.22525282815999204,-0.050070091654579756,0.1533501418889427,1554710801.023304
0.15372751181540692,-0.06949172653620062,0.06779662450236518,1554710801.2245421
-0.185458010939265,-0.049299106519001816,0.19788778269499185,1554710801.42563
0.05438121682720003,-0.40913398141782115,0.21389338084636805,1554710801.627015
-0.5770180586397623,-0.5471594954461209,-0.5090419370799257,1554710801.82812
-0.102811600198618,-0.043954142211212785,-0.03770237155225178,1554710802.029313
0.02861113853904828,0.006728210177976188,0.39880065007220467,1554710802.230671
0.1787255397035447,0.31732576389508355,0.26130004509475957,1554710802.43216
-0.04595870356371543,0.014572551168804583,0.16857436857648966,1554710802.633298
-0.24188719864473598,0.12349770396580848,-0.10839571637229614,1554710802.834656
-0.05918742364646603,0.08150524621354806,-0.04546788297481383,1554710803.035723
-0.011369567325766284,0.06162687920497861,-0.011992480704735818,1554710803.237156
-0.01892016164835894,0.03652392276989171,-0.010233462804738481,1554710803.4379401
-0.021473600501526913,-0.04534431230023415,0.03419205891941833,1554710803.6394858
0.010336527138924547,0.030073480293610788,0.010515225248068864,1554710803.840773
0.04283428297283447,0.043952544314558736,0.042377018213667864,1554710804.041967
0.006114884178930939,-0.033610690853454035,-0.00025513083242959103,1554710804.242888
-0.04856194352926788,-0.017023192003895498,0.010492055746585174,1554710804.444068
-0.026458505429937232,0.006011819844744872,-0.00014008227333816794,1554710804.645678
-0.026940271271132566,-0.013919277753408146,-0.0035776906084124486,1554710804.8470402
-0.004763596241824733,0.015543007070029457,-0.0068278124027451505,1554710805.048503
-0.006388657138991084,0.010633469600468383,-0.019052787070644887,1554710805.249449
0.019634155136609183,0.029001824270962904,0.017588048471101306,1554710805.4508
0.0030226878372399354,-0.016862337074054712,-0.003443200973363447,1554710805.652581
0.009126386739592542,-0.02182567039763539,-0.009092564593748536,1554710805.853405
-0.01006302049497341,-0.030146983539696977,-0.017011207778990144,1554710806.053978
-0.034755850122188105,-0.034122017782749245,-0.026813504803244795,1554710806.255527
-0.010069944713807616,-0.0008783105275081328,-0.02465128431420946,1554710806.456973
-0.03143675245562235,-0.03186738560388817,0.0005163869353663643,1554710806.658321
-0.0008655273542757524,0.0016897757116552767,0.01831216197149385,1554710806.859627
-0.031099063629400302,-0.04989272512598048,0.009477391371264986,1554710807.064611
0.06614839410371515,0.014381336202536895,0.0518493495788617,1554710807.261656
-0.10992809926352774,-0.028589566934218637,0.007375890955083458,1554710807.4628448
-0.22256862809730119,-0.09878010694045605,-0.029219670848131384,1554710807.664264
-0.49614051949514587,0.00019281286292173686,0.1632581664084735,1554710807.865416
0.2187717593311752,-0.17433478601433106,-0.009422796568918361,1554710808.066661
0.07795471984825442,0.21627930686697006,-0.004997954417751706,1554710808.2681088
-0.111280985097288,-0.0034264230584959477,0.14240108769929993,1554710808.469527
0.09377842409717824,0.10152289654712865,0.00011238539800134385,1554710808.670652
0.037701039971706735,-0.07724019372778616,0.020231502169113957,1554710808.871851
-0.24491787596524614,0.3300633970728235,0.26865356549668634,1554710809.0727649
0.10725002447134406,-0.1797977283584106,-0.011022557435728959,1554710809.274061
-0.015242069866850503,-0.14158482882519063,-0.019984627136063613,1554710809.475455
-0.1152640088236105,-0.0677769171102986,0.01878513938109192,1554710809.6767678
-0.15028564242258852,0.12072801643212608,-0.00912532147515651,1554710809.87784
-0.1699674681427101,0.056037969341338326,0.03926751132489134,1554710810.079026
-0.22259925444983708,-0.1146355028063518,-0.08681212731774895,1554710810.2799768
-0.10070583872469234,-0.3897229991805606,0.031879902461011536,1554710810.481697
-0.22842412038605842,0.30992910028349746,0.289511443154187,1554710810.682873
0.303360946087035,0.03743206070160873,-0.15043504575974195,1554710810.8843908
0.29280444184206994,0.1946429872228393,0.030381341715623948,1554710811.0854201
0.11664352626827154,0.09579070861684211,0.11484615884857707,1554710811.286365
-0.22133158977095937,-0.1606000653244654,0.130505546058243,1554710811.487495
-0.027971180929102238,-0.4076199743381111,-0.1691267081865721,1554710811.688819
0.1650155864118168,0.21762979585574924,0.2515504786600885,1554710811.889657
-0.14734870837244912,0.032870332070412005,0.7405571885432392,1554710812.090503
-0.04734141680168457,0.010731473928583299,-0.14005324488228607,1554710812.291961
0.0547266288205833,0.15699867258235126,-0.011611914984963494,1554710812.493331
0.06260399300892869,0.04054929075754648,-0.140320093623512,1554710812.694318
0.12028699695560895,-0.17542029047464736,-0.026608441399308694,1554710812.898732
-0.15024729290289138,-0.03823660166692167,-0.44761745811779313,1554710813.096473
-0.05111511606632685,0.039752472959394776,-0.32839386138545285,1554710813.297653
0.19098060809176232,-0.3543258598678814,-0.779440405722832,1554710813.499185
0.0893645009064809,-0.2572376591679527,-0.05278545070202455,1554710813.700136
-0.2895061168320068,0.2081002065271187,0.028385835110827578,1554710813.901109
0.0649100241968283,0.17033125594761495,0.2479480206535383,1554710814.102191
0.08141150294317727,0.07877763662508891,0.06325220641825396,1554710814.3033772
-0.4483271905482993,1.04700100990815,0.43642472468840815,1554710814.5046349
-0.013279053827353098,-0.08623022661956664,0.12749564139423544,1554710814.7056699
0.2455106956238978,-0.05483688368971259,-0.04096634178425289,1554710814.906683
-0.19243229720196453,0.3230784581657637,0.11482884830149155,1554710815.107748
0.01990766178056032,0.36567731769823514,0.21805377110128984,1554710815.308877
0.03883794344106156,-0.2023400554053863,0.059254801622045036,1554710815.510284
0.07086538502646349,-0.27702467975113243,0.1595150934963671,1554710815.711403
0.12256639653260777,-0.6289475693674353,-0.25691435141161706,1554710815.912092
0.21910598604798015,0.35546036649225515,0.23972098341406553,1554710816.113881
0.03844219770307579,0.2620563828443421,0.1492227748315379,1554710816.3148851
-0.551968365426477,0.19688749938955807,-0.3457989506896657,1554710816.516276
0.0554656560230803,-0.39979773758433035,-0.43148189770522105,1554710816.717095
0.3170826172875593,0.15528013473092311,0.03452335615902419,1554710816.918175
0.0025254756617221416,-0.1398689541348526,0.00048815742781152435,1554710817.119808
-0.07731928961216152,0.12429931545392234,0.3006991165775008,1554710817.320596
0.004878911117025164,-0.005322860070741373,-0.05752641007458361,1554710817.521347
-0.0961635511694532,-0.0033992588153771396,-0.09246468673144215,1554710817.7228
-0.2439343705746799,0.07394799398823021,-0.017824270859791335,1554710817.924346
-0.06730074390739244,0.05758952699241849,0.04738695685632492,1554710818.125136
-0.022411299521343814,0.047104661780776526,-0.04523565532775892,1554710818.326384
0.1387134085378672,-0.04567427795929497,-0.10646785405918778,1554710818.527316
0.06789436251437109,-0.00248206613595385,0.0003826962486443865,1554710818.7289848
-0.01992097758601072,-0.12978755782835763,-0.04521221951016622,1554710818.929685
0.10882581688834395,0.06238108642568905,0.10754883114565095,1554710819.130616
-0.059630041019637196,-0.01910338713135639,-0.009380185991477092,1554710819.33187
0.037587056677051346,-0.11971308574069688,0.025188710222187452,1554710819.532854
-0.11458437011342228,-0.03018613200772114,0.014917164213860837,1554710819.733917
0.022649386122796898,-0.042245990688035966,0.17414330473195436,1554710819.935382
-0.5023768438197844,0.3827649582005106,0.18041185330578288,1554710820.136615
0.35767824704807316,-0.12612784185837073,-0.19871389526513442,1554710820.337564
0.10639301923255656,0.14213663580305505,0.06065376014266366,1554710820.556705
-0.6145899352986002,0.08992935737368671,-0.3620357112236608,1554710820.739808
-0.09570202535254246,-0.08173454438340388,-0.1434660858192226,1554710820.941364
0.19334389724309864,0.14790397745973066,0.19938314764707132,1554710821.142797
0.46751739673119225,-0.13046772917076385,0.5241569741627795,1554710821.343929
0.3151057528103935,0.44875622579991103,-0.08469518056724497,1554710821.545012
-0.8955837903383866,-0.09226415070135918,-0.5257364950053055,1554710821.7464972
6.25842856168621e-05,0.10877814630483153,0.06668741790834717,1554710821.947122
-0.3035321873451271,0.06587275693089194,-0.11697109508235129,1554710822.148891
0.030311566895063872,0.5427263974955749,0.010462760974594303,1554710822.349755
-0.2491278010164434,-0.06241091382989794,0.08038245749797066,1554710822.5503001
-0.31731937230846735,-0.5262792472354636,-0.1921281642054775,1554710822.751543
-0.6701240345616954,0.26266464883731616,-0.22085328603918114,1554710822.952952
-0.07889295150028934,0.04843011705530896,-0.12854599212816267,1554710823.154232
0.30792879998873895,0.405466542280673,0.2129897702885042,1554710823.404865
-0.4875275902137206,0.2571838633139331,0.18023022571943947,1554710823.556333
-0.8341933998382072,-0.10394264471357464,-0.4469655162829418,1554710823.75753
0.5292071265378967,-0.6163540132046686,0.10122116039562268,1554710823.959132
-0.16949795284252914,0.331557696760467,0.08436787806927423,1554710824.160758
-0.18041771226018105,0.037311419504228144,0.19688350464792295,1554710824.361483
-0.06561842504678937,-0.27922072238601175,-0.21821808814054774,1554710824.5629
0.05162218193787794,0.020912738775956227,-0.15947301555114388,1554710824.763797
0.3803633195294771,-0.6315606630290211,0.3237367915872313,1554710824.965559
0.42072618901071807,0.3236758051982685,0.05961858942694986,1554710825.166116
0.1338099963388133,-0.2925778068333042,0.1522947311489443,1554710825.366926
0.5235662850329998,-0.6665202449746003,0.1402330082558664,1554710825.567957
-0.3379207875529933,-0.07299857705961696,-0.4005655269266002,1554710825.7695088
0.6819082560691871,-0.834358515825792,0.3276676173561882,1554710825.971084
-0.0443142015905915,0.28695853693323703,-0.06949332443285466,1554710826.174465
0.13410294405872203,0.06322211269793608,0.30808752438970766,1554710826.373328
-0.44563846311175526,-0.40235517117913344,0.07262173976537074,1554710826.574595
0.049068743084709966,-0.08099551718090689,-0.16775757707016237,1554710826.775902
-0.18924103126772257,-0.2999513009434066,-0.1270538229693913,1554710826.977294
-0.21202703755444052,0.0528240665378307,-0.18554749315189167,1554710827.178066
0.6699530596197124,0.24641377354954366,0.3645670458397811,1554710827.378778
0.27683745952649985,-0.1296959450868589,0.15470915299321014,1554710827.5799088
0.05515193564666896,-0.316333736389029,-0.33363416346240177,1554710827.7817411
-0.43701381592153365,0.8912212661567279,-0.057218814968679456,1554710827.982971
0.15480422784412595,-0.17347485129834447,0.05031563510708506,1554710828.18381
0.3082763425109943,-0.2795613406894329,0.32342200594638393,1554710828.385357
0.2185027800610772,-0.06706185835761232,-0.04502393402109762,1554710828.586432
-0.01350196041059273,-0.16072496757959012,0.10546224443157387,1554710828.787724
-0.38954563265196135,0.5655014848218236,0.31055680735242913,1554710828.989482
0.0735075071439311,-0.032109733263085374,-0.0671689174334335,1554710829.237951
0.09273499758208519,-1.2608416601649344,-0.05484274264411076,1554710829.3908591
0.6915582202790892,0.3125901308447046,0.1443835448147549,1554710829.592239
-1.0439032209281698,-0.08463925418435331,-0.2972306155737816,1554710829.7935948
-0.15653954361042158,0.46473093128264237,-0.07850120050393868,1554710829.995167
-0.18423269052171956,-0.18337169054129693,-0.004721251980492474,1554710830.1959748
-0.19417533613542137,-0.13193246777030745,-0.07036337916098355,1554710830.397409
-0.17455023574651846,-0.2199446154752461,-0.26462074065797936,1554710830.59838
-0.4660566528732838,0.25552098552928765,0.11921427566852504,1554710830.7996879
0.3868041746258338,-0.012332566375938936,-0.09799980074106283,1554710831.000947
-0.052498894568732024,0.38368108561549785,0.1907041719706121,1554710831.2549438
0.13677169778709042,-0.0804780649811045,0.160922574132474,1554710831.402742
0.15558693088850026,-0.09274005758815633,0.10644974456377525,1554710831.603942
-0.003741208699343314,-0.1187998878029087,0.23288171941863303,1554710831.8056998
0.20968585264015188,-0.41000084035264195,0.011579957051882543,1554710832.0067859
-0.029938458026343772,0.00579530484812143,0.1870407275750991,1554710832.207845
0.05170394098334337,-0.1676811443468771,-0.04262921956889837,1554710832.40941
-0.3072944350170821,-0.10807453914483259,-0.1647913482480321,1554710832.6104221
-0.4630853640450824,-0.15112080974043737,-0.0076041238605032485,1554710832.811728
0.14125006947616767,0.04585936765505547,-0.23767487674855764,1554710833.01331
0.331962497246159,0.19319023284820108,0.02869316390062272,1554710833.229625
-0.08114784999525942,-0.23314031236047972,-0.18183264974734015,1554710833.414781
-0.3881551962468309,-0.17914072651748805,-0.19267624275781578,1554710833.6163669
-0.00471272986500422,0.036720996690557575,0.23713745084057966,1554710833.8175259
0.2396091306482822,0.16609017191166375,0.04885755441026668,1554710834.018738
0.16024293542228576,-0.7476739539242578,0.18179296864709796,1554710834.232991
0.09552306092728914,0.030663636791172347,0.00488077532978822,1554710834.4208279
-0.489255715445073,-0.35178600313627284,-0.5043044398167837,1554710834.622262
0.02711417569031474,0.10353012106072138,-0.056204150593359266,1554710834.8236132
-0.02886227462984275,0.02518205231946225,0.05563023937844719,1554710835.0246859
-0.32352507028057,0.034508975089137764,-0.03468474372108299,1554710835.226079
0.10937336280846423,-0.15724208550598448,-0.28557262790195975,1554710835.427299
-0.1736104061978295,0.2099756045667525,0.04603566891921872,1554710835.628624
-0.1151766571398559,-0.05409892175165163,-0.330886580165767,1554710835.830748
-0.013199425310759728,0.4302762846797422,0.20597393871279943,1554710836.0309439
-0.1632144905665962,0.03422721264580738,0.2578898673189131,1554710836.247617
-0.07809746528268267,0.04327769929433266,-0.3775156013758554,1554710836.432835
-0.159644789441454,-0.00989604029462544,0.048442367596323324,1554710836.634232
0.44369781762541455,-0.16005731309430726,-0.1762179072211261,1554710836.835376
-0.19488932962367161,0.3240654256657471,0.22904437060393787,1554710837.036747
-0.5665254702609591,-0.1215123173731544,0.08304055858197874,1554710837.2379851
0.02091593456926432,-0.3725317617118811,-0.16876611617497536,1554710837.439425
0.6128610111189208,-0.5003706845706277,0.049659698530598546,1554710837.640626
0.3628325290218125,0.16916931876401337,0.1020017329111249,1554710837.841965
0.21139187363445663,0.10110957394594836,0.5426683405838113,1554710838.042982
-0.31938891479156795,0.09142285811300314,0.04496134973548076,1554710838.24387
-0.23860858102673943,-0.35816960026919276,-0.005179049371877095,1554710838.4448051
0.25795191897231196,-0.33687576314124623,0.034815238614496875,1554710838.646436
-0.08243815154340282,-0.37118446851641,-0.001517735505236158,1554710838.8482509
0.3166434620238052,0.1500456916083724,-0.0011121360712170898,1554710839.049012
0.2359190546418684,-0.2894288851603945,-0.12282472315834546,1554710839.2501578
-0.5561953347086507,0.1825506379772255,-0.15807325808219821,1554710839.451606
-0.5031478289553624,0.010881676214063767,0.06478751878668465,1554710839.652703
-0.07815951693608152,-0.056708286987711264,-0.19640653249668977,1554710839.853909
0.4338619647714249,-0.3949886012878653,0.3619017542208298,1554710840.055779
0.5226240586393298,-0.07966580084863033,0.48949060625321805,1554710840.255693
-0.24506062139967438,0.2914425012606034,-0.130371056423194,1554710840.456995
-0.21814378594613454,0.10270773691610491,-0.22705445663743065,1554710840.658531
-0.23298638164947313,-0.010868626724722379,0.04376772093490724,1554710840.859848
-0.18701596017696137,-0.13642175841985402,0.15276025170749014,1554710841.06127
-0.23088541386550965,-0.29392403476433926,-0.13877652545570207,1554710841.2626681
-0.14430364998205253,0.21754617259752074,0.09973777966844855,1554710841.463574
0.683316269337512,-0.02708834302774097,0.028784776642121448,1554710841.664973
0.05098328959236793,0.07504628162177888,0.4940312959118031,1554710841.866127
0.14956072997386893,-0.23275575189907227,0.17305460447832996,1554710842.0671659
0.020604611037834057,-0.41819512071070675,-0.0498296082081456,1554710842.267731
-0.0020261329573322846,0.07547771371837173,0.07330297637221302,1554710842.4691582
0.14515799205974994,0.26154718644391894,-0.09991035250708567,1554710842.670309
0.27932192250743476,0.11494416317669198,-0.1308917044163045,1554710842.872195
0.30621505582727293,-0.02159610591167056,0.09708500490662061,1554710843.073086
-0.5355592983699538,0.036172385506001256,-0.3949979223516805,1554710843.274173
0.18739572694840667,-0.2002856929404992,0.09450440181033383,1554710843.475953
0.1683674409597905,0.14020025137445843,0.0027675570048103443,1554710843.677095
0.07663565616033817,-0.016433301822442948,0.27075453328064986,1554710843.878185
0.30596738184589556,0.16353380358129668,0.19537162809708497,1554710844.079399
-0.5603120491216952,0.3876087155911467,-0.2673576713102538,1554710844.2810678
-0.5960753730842603,0.5436126975063533,0.26862746651800357,1554710844.4817061
-0.017297231280064652,0.021019531535668403,-0.3550337280856245,1554710844.68326
0.791269102020528,-0.040255544089310744,0.7236961830497295,1554710844.88428
0.8876888492868468,0.4079741747630916,0.20380932137878302,1554710845.0853338
-0.5668876601692099,0.1595816725236191,-0.33186262870528105,1554710845.2862248
-0.7476872697297082,0.18858882311676217,0.04629772397048252,1554710845.487236
-0.31755745890992043,-0.14226153805817976,-0.2535377294655056,1554710845.689136
1.0158888967894082,-0.04871321107918439,0.3847993469572221,1554710845.890367
0.5993071190670715,0.07396929927695084,0.10683909871514483,1554710846.091587
-0.4974926063805791,0.2825512716452649,-0.12034292333850062,1554710846.2928538
-0.3127573773611616,0.3223349035894136,0.06811087751099454,1554710846.494038
-0.22687975326992146,0.20594650815357163,-0.4035599852562853,1554710846.6951609
-0.06511002759469325,-0.7398019160580926,-0.1297963462599549,1554710846.896541
0.49857544767980533,-0.43717120874195736,-0.2092091468050277,1554710847.097656
-0.47905580847006957,0.4289508294052098,-0.29604470994036935,1554710847.2982612
0.05712533801441767,-0.37670040776618213,-0.28237257353612055,1554710847.499413
-0.016678845274948253,0.35195404860105683,-0.025766882494843654,1554710847.7010999
-0.44283362185168385,-0.15163346825027763,-0.07562099178501798,1554710847.9023418
0.16133882621085338,-0.22561608333267885,-0.043129893853833264,1554710848.1037111
0.02990037482275564,0.346413608269256,0.14091238064994563,1554710848.304387
-0.10195885601757462,-0.15295466246706593,-0.202597849398906,1554710848.505666
0.23352354124134214,0.5195955118476917,0.146571065334146,1554710848.707201
-0.27333673427359073,-0.06425648446532285,0.3542997608891986,1554710848.908677
0.36616680670659174,-0.1245099714961476,-0.14047695381171768,1554710849.109891
-0.01332113177257635,0.2602896417771835,0.2759777911266223,1554710849.311082
0.43596879150978657,-0.01712971844749867,-0.14113901565871137,1554710849.512237
0.31978572579398973,0.6682196080661799,0.4804656859511575,1554710849.7135038
-0.10131410471766644,0.29896912713338536,0.34250675095010974,1554710849.914586
0.534089766080448,-0.3701053556427099,-0.2891468564009551,1554710850.115779
-0.21703244882324446,-0.0070877369251368845,0.16990328596043922,1554710850.3164601
0.1348347807262758,0.1661120098326024,-0.0631757736949687,1554710850.517739
0.24671710759770368,0.67457897043318,0.6444671406198721,1554710850.719441
-0.23265295388099522,0.5028687296731221,0.3721466686182556,1554710850.920718
0.3177518696694962,-0.4805106933735798,0.14172411215020178,1554710851.122563
0.1922674475304886,-0.5122670251600117,0.4747449496135583,1554710851.322998
-0.13300785221848144,-0.17033232121205097,-0.6264527200582491,1554710851.524451
-0.22212388019525794,-0.3610309005443739,0.30217477413751376,1554710851.7257109
0.465827887335646,0.013801033401008628,0.6227818188116839,1554710851.926481
-0.7237779420951949,-0.46914751763442974,-0.15251124614556774,1554710852.12808
-0.6567379216585212,0.24937600763003878,0.05458228548950101,1554710852.328764
-0.3274332591802613,-0.22424641958405112,-0.7700335881204542,1554710852.530004
1.1178389643753857,0.2046956213895614,0.7356346015843367,1554710852.731501
0.6784525382387003,-0.3008897989115505,0.5013762941982417,1554710852.932811
-0.41201179329176074,0.3574239151639706,-0.542356218104054,1554710853.134155
0.11203998600796057,0.4633253148592985,0.47770132473965526,1554710853.335102
-0.22045913819784943,-0.010949586821860788,-0.30347572833001746,1554710853.536623
-0.07978750731044695,-0.6572412591045462,0.26067766434800804,1554710853.737702
0.8011933718227082,-0.15176502840812753,0.2924265392833877,1554710853.939423
-0.380829106404132,0.7288701724155354,-0.16435565509369515,1554710854.140081
0.23729484366100334,0.051644552491034605,0.1678435971733719,1554710854.341006
-0.21392720299221207,0.11436465932349074,-0.09437949955520912,1554710854.542392
0.00448050221794931,-0.7906323402038901,0.4126458919473086,1554710854.743839
0.29340871309340893,-0.31688953810852855,-0.14253238154104084,1554710854.945054
-1.4402167448583494,0.2770379955565828,-0.62843357927705,1554710855.1465979
0.022469889065325557,0.08042506807541193,-0.15510303451843285,1554710855.347836
0.4690915912515381,0.7056759035337082,0.03274702771194134,1554710855.548975
0.3563056538222463,0.266220767840899,0.17903952639606505,1554710855.750111
0.22118751275598608,-0.16463235753095437,-0.34587112235520684,1554710855.951307
-0.26735554078138174,-0.17150357945946781,0.48585832084245895,1554710856.1543741
0.444754559945958,-0.061684137168415316,-0.2922145516606174,1554710856.3532429
-0.4568106902007467,-0.6451182835063964,-0.04951056150955411,1554710856.554182
-0.08694928011388804,-0.07048881404832628,0.16059101057675915,1554710856.756237
-0.06775907393099506,0.003254649168185837,-0.21050477467535125,1554710856.9574199
-0.6213381191847519,0.15390328044735216,-0.12577257616895415,1554710857.1583629
0.09615183326065685,-0.03743365859826278,-0.25718253173338806,1554710857.3600302
0.02795813143976085,0.1298568000166997,0.17113712849347293,1554710857.561068
0.5060602619234731,0.04942107929692745,0.32754857405546167,1554710857.762373
-0.08041042068941649,0.2510253032931249,-0.27986893579533706,1554710857.963563
-0.16665236521777949,0.16300782926600604,0.13609605381853732,1554710858.1648169
-0.09004121013947003,0.1565941384127682,-0.20853936179087276,1554710858.365334
-0.13388829327486163,-0.018291389314991233,0.06126175981952875,1554710858.5665889
0.5607514707015583,0.010748518159559805,0.19767579507222152,1554710858.768279
-0.10943940920349819,0.36210628499254793,-0.010415356707190893,1554710858.969667
-0.35166882404830935,0.4575470542421536,-0.2931735559691549,1554710859.170502
-0.585847502917811,0.009179383645285118,-0.09888130706187906,1554710859.372112
0.8998507070369116,0.12072934801267111,0.6158315009987951,1554710859.57388
0.20778568720238033,-0.009302954319864795,0.4756845128461383,1554710859.7745361
-0.4842388525835818,0.27908170537710963,-0.3991567147099483,1554710859.975708
-0.3538891014491084,0.605712820437039,-0.013270798027973853,1554710860.217221
-0.19499399185451174,-0.13419881785796486,-0.3427733333752267,1554710860.377671
-0.02831100028419635,-0.6821950785185886,0.21732779338813424,1554710860.579173
0.6969708288785663,-0.1138522671297595,0.2795163332670106,1554710860.780518
-1.2860492788308613,0.4612461849962737,-0.31866506760728436,1554710860.981936
-0.5375374944276646,0.31347509927493794,-0.5948101052503636,1554710861.182991
-0.001944107595757844,0.11400939363407417,0.18973025395997012,1554710861.384231
-0.16159875073324512,-0.39556331145110435,0.08228661767737731,1554710861.5858111
0.4590863613522194,-0.5555857371351316,-0.14587811081850738,1554710861.786835
-0.7112701397195287,0.2461328100545403,-0.27515700487865985,1554710861.987983
0.09886719230810163,0.4353812981733151,-0.11811891751217544,1554710862.227545
-0.12176451872838491,-0.05344804518123626,0.017122527912555453,1554710862.389823
-0.22063836893921174,0.24203021039527323,-0.038179077387375956,1554710862.5910702
-0.2547132487706666,-0.3166256188445017,0.07002595665087051,1554710862.7925801
0.04362417655215197,-0.32549341264224757,0.07463722007834271,1554710862.993891
0.7468563634696035,0.07650516126692429,-0.4078924157176262,1554710863.195081
-0.11462112173646537,0.28355341916346166,0.35392718465269657,1554710863.396398
0.2687819298612282,0.04070029199135397,0.5288334850369586,1554710863.597858
-0.17021514212408748,0.07508143534816793,-0.19406055389243898,1554710863.79915
-0.10835497000761793,-0.0040666469845509964,0.4767822678474689,1554710864.0002499
-0.11901214174178802,-0.38446059286656403,-0.485423426636449,1554710864.228046
0.5212069906232987,-0.11733328499060207,0.4752328407252608,1554710864.4020162
0.5340295786398123,0.19287597983957172,0.47854075311524824,1554710864.603553
-0.40642794343419164,0.1320150257640999,-0.08005968237385305,1554710864.805142
0.37696645755908104,0.24752644225297876,0.23030031737401924,1554710865.0056782
-0.3189795869320227,0.4669948845253187,-0.30706487053111725,1554710865.2069821
0.29186461229338095,-0.8549412889426874,0.1767832963205499,1554710865.4086561
0.49001951004570776,-0.081301248074048,0.30118780663753036,1554710865.61024
-0.8501811548102798,0.46722844375291867,-0.46527581404167256,1554710865.8114882
0.1177143833425924,0.050029611606010556,-0.28051102393415517,1554710866.012195
-0.4135851888637796,0.38998026054186224,-0.14377234934458172,1554710866.2130818
0.03708984450153355,0.1743030943973591,0.4707153205681594,1554710866.414386
-0.04816752937182715,-0.2522825816437513,-0.3612756450485522,1554710866.615934
-0.22087938501786392,-0.34809832397484014,0.18216900699301716,1554710866.8172932
0.2287937671453614,-0.13741378592590853,-0.3461651353395516,1554710867.018629
-0.020184364217819554,-0.5599780887209993,0.4270562566057274,1554710867.2199268
0.4528276664744242,0.34665782014121627,0.6144719572623096,1554710867.421099
-0.7761506028282571,-0.20436432414995553,-0.7703094916093863,1554710867.6223269
-0.3801105855420286,0.1958672423759487,-0.18210136270132915,1554710867.824126
-0.057207896008210135,-0.08431914222132579,-0.6292295981268747,1554710868.024692
0.6435595353203731,-0.5924265760747427,0.844810357839917,1554710868.225493
0.6899081256676761,-0.10293383929265264,0.4490608914286161,1554710868.426632
-0.9618688046060229,0.20665783848073177,-0.8498384059779867,1554710868.6282601
0.036348420454055494,0.22564191599525263,0.13877865598457415,1554710868.829245
-0.4816752937182715,0.3403016535675241,-0.3420556114614503,1554710869.030661
0.32325422679770893,-0.35367258645248495,0.3243698249783431,1554710869.23157
0.11061998851473033,-0.2869148610913597,-0.23848767351324981,1554710869.432817
-1.0774971338667563,0.40601914820686447,-0.4382780184909943,1554710869.634245
0.21324729796591485,0.22458543999081818,-0.5679984646598819,1554710869.8358479
0.05162697562784008,0.6284708635323112,0.47765818152999595,1554710870.036876
0.1795191617083883,0.15051840270186145,0.7327133801846287,1554710870.238233
-0.0560203924781438,-0.7539254582671099,0.03546212044327712,1554710870.439486
-0.12338185645839003,-0.20635477074868078,0.08276998141522669,1554710870.641146
0.05782548306499951,-0.4115409464110348,-0.4464728314812771,1554710870.841905
-0.10063073758195211,-0.250189603343058,0.2593391595841342,1554710871.043267
0.3918372827699745,0.30505871128196055,0.5451743751695758,1554710871.243684
-0.8035356220014329,-0.2757588792850178,-0.7388594233483136,1554710871.4451308
-0.12579201724491174,0.23556165842357976,0.30645980033145126,1554710871.646527
-0.11084262878186095,-0.03046603023828847,-0.5044389294518328,1554710871.8482351
0.13759727772501498,-0.6967468570308906,0.4583806236633484,1554710872.049358
0.7611479511434047,-0.26683489278827127,0.4887877980415461,1554710872.250482
-1.0603277343190154,0.5111740638486432,-0.77496869193648,1554710872.451635
-0.07037323285701684,0.438234608965226,-0.13056360297000671,1554710872.6528769
-0.7990263576437108,0.10771394713323586,-0.6376710198340989,1554710872.8541842
0.1877797547775961,-0.5812122710405281,0.43060092401662287,1554710873.055225
0.3800341528187433,-0.5607693138808618,0.13077346006390497,1554710873.2564101
-1.0489826680752778,0.22768695739632447,-0.8565780677486502,1554710873.457882
0.20296722984209997,0.28384423635449835,-0.005954029249090153,1554710873.658854
-0.006044576726152847,0.24256177734885304,0.23979635087291476,1554710873.860268
0.18831371857615697,-0.3861370527727689,0.3764796317118146,1554710874.061295
0.3787832660547331,-0.3440396664735594,0.13885588765618645,1554710874.262136
-0.6993016274646037,0.513722709011849,-0.667721596942335,1554710874.463482
0.06508392861601046,0.009465673462468637,0.07469154856458034,1554710874.664875
0.2249894415281832,0.6378281463384136,0.27774799430319796,1554710874.86608
-0.23489799867993202,-0.3743400480920449,0.2764078916426701,1554710875.0673409
0.6105826768063579,-0.3221029422584677,-0.06866374975329498,1554710875.2686281
-0.5571567358621693,0.24158226669992192,-0.6429981409625845,1554710875.469716
0.05747101632390996,0.12394458239672378,-0.2804979744448138,1554710875.6729178
-0.1508600862697186,0.15806979597278112,0.10158627978107254,1554710875.8720222
-0.20131899944344994,-0.2551209787335577,-0.039124499574354085,1554710876.073676
0.5256289032972663,-0.2056439730537386,0.004935636448243852,1554710876.274382
-0.7966361705653646,0.3236835283654297,-0.05290369505442407,1554710876.4756289
0.35371280018494516,0.05080352621878758,0.07500500262488266,1554710876.677044
-0.07618638088444181,0.11241682330220679,-0.10399404372261319,1554710876.8782
-0.14114087987147442,-0.01959980035854716,0.1145649290374647,1554710877.0797272
0.3527716390557112,-0.22692662490510684,-0.07154023004668957,1554710877.281187
0.08104558460940038,-0.13685851683862701,0.37024650318048413,1554710877.482089
0.15131601944834017,-0.20133364682944538,-0.12077462175120246,1554710877.683733
0.18292481211038164,0.6553402947184477,0.3333795652621902,1554710877.8849568
0.14541791658214168,0.2030314120243709,0.5279320050079668,1554710878.086258
-0.11725152594513663,-0.26416826958877493,-0.07243451954073818,1554710878.2871761
0.09808821768925347,-0.26870895924736,0.4293811962373666,1554710878.4882932
0.08598148737375325,0.058749599963257,-0.6270511323551899,1554710878.689606
0.4758075508884999,-0.11147672743740882,0.3792072413002737,1554710878.891712
0.2639488251149524,0.38737835215685484,0.355186060899977,1554710879.0919418
-0.9457580115915886,0.4088471589684196,-0.53765147772232,1554710879.2929049
-0.3478397310329934,0.017674334890419873,0.11049934731734974,1554710879.494199
0.02700392082118546,0.029226062434747575,-0.3281259473797909,1554710879.69544
0.15455202648889546,-0.5803920174247836,0.17888666094949449,1554710879.896966
0.9578125439497233,-0.5410147838629811,0.32746282026836115,1554710880.097866
-0.790394253602437,0.3174120503144021,-0.6184113051467549,1554710880.2989988
-0.08646245426662155,0.03968882340934188,-0.21494772632193043,1554710880.50032
-0.4496880658653298,0.24494397494392892,-0.5382980932349912,1554710880.7017388
-0.180046201288115,-0.4262322745644569,0.04064596350511636,1554710880.902979
0.5094323564957314,0.004979045974012144,0.19703929957169258,1554710881.104326
-1.224188307766065,0.1881227699259983,0.009940781400938773,1554710881.305276
0.16571786199127067,0.21424172231695043,-0.3019012674935626,1554710881.506472
-0.37625406196748484,0.6475505485299659,0.32958722386991735,1554710881.7082682
0.4590293697048917,0.2902491387761389,0.22513618170424657,1554710881.909096
-0.18727348785437203,-0.5590345307467842,-0.47675323939158704,1554710882.1106892
0.24258920790808086,-0.5327912087329254,0.25035019195678976,1554710882.311336
-0.030943801337848683,0.04905169885373346,-0.37501915417001513,1554710882.51261
0.4898445403620896,0.3052951999867596,0.4396016095527637,1554710882.714017
0.11422857179178769,0.10018092967383772,0.35434290409885794,1554710882.9155412
-0.5997979396559731,0.11345945086897281,-0.3541942997100315,1554710883.116829
-0.5151301896479559,0.21752353572825509,-0.10809664338188024,1554710883.31745
-0.19208581994414523,0.36065353061790967,-0.21473946712468625,1554710883.518793
0.5165605734694374,-0.5862134212515878,0.25195208335247243,1554710883.719939
0.9662268014138286,-0.027721376418852806,0.34455392288005365,1554710883.9215841
0.09282075136918573,0.2518335726839639,-0.0068078386945695565,1554710884.1228929
-0.632031243593638,0.5889660645542938,-0.07851744578658816,1554710884.323766
-0.11678121169662864,-0.21421668860270368,0.1787527039466635,1554710884.524893
-0.08134332601927124,-0.534361408511636,0.07116978433905954,1554710884.726562
0.04259166899752825,-0.19754476754658964,-0.13555170369172512,1554710884.928015
-0.24889477442106148,-0.0006271744367136606,-0.4831600060259907,1554710885.129273
0.3420878357106403,0.0032695628702902805,-0.1953857428508624,1554710885.329896
0.27506485950494314,0.8500109788166238,0.6148210976812191,1554710885.530906
0.24681005191974745,-0.42385487065934313,0.224511670428623,1554710885.732614
0.21189680897713567,-0.27200275688357,-0.053432332530804795,1554710885.933883
-0.5379854381230159,0.5036783306445062,0.2733058416049458,1554710886.1349769
-0.0816341432103079,-0.18873183486729941,-0.26083798664563085,1554710886.335921
0.13818024368763335,-0.04152400771651548,0.18347901593322713,1554710886.53718
0.27464061794329353,0.1854641362097722,0.12110591899080832,1554710886.738781
-0.8532158268724251,-0.0531500374552564,-0.44514684357452666,1554710886.940292
0.13545875936968135,0.18185235713940673,0.08766780097599142,1554710887.142164
0.09587992451335976,0.16294338076762613,-0.2503043855860404,1554710887.3426661
0.8307440735943364,-0.01580293159242119,0.5551361955431262,1554710887.544142
0.5602017942525659,-0.07784419866301613,0.39611352053231474,1554710887.745347
-0.3707298669183335,0.04109710299377578,-0.2464827494217767,1554710887.947064
-0.470197602052248,0.1793439257086611,-0.16151166536559952,1554710888.1552591
-0.044995171881324764,0.2646913144268665,-0.21938188953691237,1554710888.3484
0.6146674332863215,-0.46697251397216205,0.666945818116795,1554710888.549553
0.781456152351913,-0.09236987819663532,0.35961835990219587,1554710888.751206
-0.797956832149935,0.027585288887149756,-0.5075529637144625,1554710888.952482
0.007521033234492777,0.49746943687909545,0.17421867219080361,1554710889.1551461
-0.4055373823656691,0.12205720013218462,-0.13773762631446218,1554710889.3550649
0.09437790165855507,-0.07825618968365139,0.3355604278788561,1554710889.556252
0.19188581654628026,-0.21493733999367912,-0.23360343607404452,1554710889.7575521
-1.0504873540911726,0.2659054495678336,-0.5501994938304463,1554710889.959193
-0.14073501412134634,-0.020404341323860098,-0.20601042401973352,1554710890.1618838
-0.2072594465709807,0.26534512047448094,0.3343385695707277,1554710890.360637
0.10098413905860562,-0.10515651353843276,0.236443164744396,1554710890.5620708
-0.0581647697878756,-0.44348050368046404,0.033862093260357516,1554710890.763482
0.06926535784354389,0.3912026514822086,0.09020073348876578,1554710890.964833
0.16401503679027402,-0.019942815506949367,-0.31988373012210464,1554710891.166966
0.035732164977811155,1.026600130693707,0.6438088071984045,1554710891.367261
0.05123389305094438,0.20874735467200795,0.1113789894254029,1554710891.5685248
0.16699484773396367,-0.5352138863765704,-0.2697529183946711,1554710891.7697759
0.10751474268369793,-0.27457510418047754,0.3103339007691895,1554710891.9709048
0.0934210278788896,0.0932061107789202,-0.17907254959358201,1554710892.225995
0.07637173689631133,-0.21444039413427035,0.028240160199200243,1554710892.3728352
0.4210742641651914,-0.14483415167119632,0.31605889816453286,1554710892.574444
-0.7234221437735603,-0.28996524580393646,-0.6012389761218149,1554710892.7762132
-0.001615207201133058,0.21456503007328603,0.16479374509301317,1554710892.97712
-0.2143109645052925,-0.29417197506182563,-0.46003178353919755,1554710893.2369819
0.44865449304627003,-0.14077336364104348,0.2863601246362962,1554710893.378982
0.8613405987260389,-0.26492167786115833,0.16550108067853822,1554710893.5802488
-0.43209256054317624,0.23922457018687476,0.03348285912113023,1554710893.781714
-0.26250033179805826,0.3668336622435476,0.21870970767777637,1554710893.983117
-0.49275777227852724,0.5925794415213133,-0.07427130174456582,1554710894.1842508
0.20101699697583494,-0.8198964858422257,-0.012707805773531101,1554710894.38515
0.5240027771356639,-0.4996969048148377,0.16613304880521404,1554710894.586427
-1.0153027350334818,0.2343629696169351,-0.5794175667819237,1554710894.788111
0.31058423791165696,0.385770601806774,-0.22660784452262436,1554710894.9893808
-0.5156239397140566,-0.024400680855633003,0.193893573692091,1554710895.222865
0.24437965110894114,-0.18264331598316028,0.529684365005239,1554710895.391446
0.03955726325149196,-0.30155186075854423,-0.31125535450635694,1554710895.593054
-0.9682428143590186,0.080427731236502,-0.48017114033459474,1554710895.7943559
0.4225163658954693,-0.2575457869060749,-0.30397933209215144,1554710895.9958382
-0.459509537649433,0.18528197599121077,-0.017306818659988937,1554710896.229531
0.23972630973624567,-0.09641681778911973,0.4134621508214179,1554710896.397579
0.5603461375836483,-0.48303164166144885,-0.0805150829202566,1554710896.5991201
-0.6257800055668951,0.18376450680208362,0.3014309532450546,1554710896.8006449
0.27575142243396555,0.044191696180447854,-0.31437178561396767,1554710897.0044088
0.26671238737812764,0.8445978375849287,0.7368101208894976,1554710897.235403
0.15744954575490167,0.1618235215292478,0.2287191986348392,1554710897.403651
0.17417606161336233,-0.4534298071968911,-0.16367708164794295,1554710897.605256
0.04764315295319055,-0.1546843855950724,0.5247175695722411,1554710897.8067908
0.5381239224997001,-0.021585985899528256,-0.055463791810317235,1554710898.0082002
-0.44663555062388094,-0.40123131719912003,0.08070390104154322,1554710898.2238579
0.13590590411670567,0.04777977311711161,0.1076681407624865,1554710898.409669
-0.008560997640168719,-0.3218219787634643,-0.3059250375845633,1554710898.611524
0.7828074402890192,-0.39729090405023876,0.5791853391348688,1554710898.8129501
-0.23342740112599028,-0.005979861911663922,-0.10004457582602568,1554710899.013754
0.16207465762004228,-0.31152113798314685,0.2975371454152497,1554710899.2317982
0.934045961749638,0.06472786397826688,0.24746119480627182,1554710899.4162002
-0.7867009818027151,0.1363136340795968,-0.6338184910011903,1554710899.617667
-0.0011028150074018125,0.3227168008897309,0.32382041484545976,1554710899.8190799
0.3807564021063728,-0.0784143814524021,-0.17379922431911612,1554710900.020208
0.49427950252539854,0.1855954300515131,0.4467948076570677,1554710900.230881
0.4625149149395874,-0.10654055835694695,0.21672645161399437,1554710900.422178
-0.4690625627956562,0.46377645434795794,-0.07645988752839294,1554710900.623743
-0.14538622496516973,0.14871704054053184,0.006293848604184264,1554710900.8252149
-0.22250098380561317,0.34288651772155504,-0.3598351412149283,1554710901.026976
0.07573151297025628,-0.46926789251570133,0.645640529396161,1554710901.227529
0.5956777631335115,-0.20497711751678277,0.027174096814841522,1554710901.4289942
0.08570851336202012,0.36451165208910746,-0.3321166942732746,1554710901.63033
-0.06027026494569225,0.3239098970580864,-0.015263641471680146,1554710901.831794
0.13841833028908643,0.4305175670745034,0.014091317959827265,1554710902.032505
-0.09302208634759573,-0.4128416342874295,0.1849328355723014,1554710902.2332292
0.10446355902279415,-0.27424540483752574,-0.07794486615222113,1554710902.434598
-0.6572894623202766,0.6185425989884957,-0.6078457461540835,1554710902.636071
-0.10470936879140846,0.026973560784758557,-0.10447714114435355,1554710902.837352
-0.2228085789115173,0.13727556786533343,0.08259660962826253,1554710903.038968
0.16776982761117673,0.23933482505600404,-0.038719699088662046,1554710903.23975
0.13141421662217803,-0.33910110054811643,-0.16080113398676638,1554710903.441014
0.014930213703202225,-0.004919657481703377,0.2740920067587372,1554710903.642446
0.3830544438110022,0.07780664809164602,-0.4205791825185457,1554710903.844132
-0.9162432624946764,-0.4151484644236561,0.08679801256397154,1554710904.045027
0.11173159195372939,-0.12654755604616721,0.2160521392259863,1554710904.245836
-0.5345686024444443,-0.3086776808872692,-0.3179004740583226,1554710904.446831
0.2637935628234008,-0.3344922339656253,0.5659214653257291,1554710904.648145
0.12142017199943766,-0.32515359328715343,-0.4881510362249082,1554710904.849452
-0.08425868846458098,-0.09614677325458569,0.5239625634032037,1554710905.051085
0.6007825103109753,0.2447855168590692,0.25393187730683736,1554710905.2521272
-0.7220309084201029,-0.653032133001676,-0.7694844443036798,1554710905.453392
0.1255749696160703,0.30163708191342675,0.3495292404285397,1554710905.655025
-0.20835187525013119,-0.2629040670193143,-0.4303154331477664,1554710905.856094
0.5559652375904679,-0.24247655619397052,0.5391588268993048,1554710906.057343
0.7676402052488,0.27817596429037367,0.45867437033158415,1554710906.2578459
-1.0652844097398708,0.615594479661778,-0.23061004300879545,1554710906.45913
-0.14017947871795583,0.8285933046979885,0.08809257516985906,1554710906.660686
-0.6059847291843361,-0.3351684105663964,-0.5388930434225149,1554710906.862401
0.6337268782596915,-0.506029102938719,0.7292198454666629,1554710907.063496
0.575396992484231,-0.2461927311790671,0.023580959872106615,1554710907.2645879
-1.4017039733863865,0.5840027312307131,-0.03794019183759585,1554710907.465736
0.32650088648262454,0.23376375837166727,-0.022723954633319117,1554710907.6671948
-0.6253112892150412,-0.10961278099046236,-0.22144504043339674,1554710907.868264
-0.032154740685507714,0.14032515362958314,-5.779059565471947e-05,1554710908.0697188
0.3141022737116516,-0.3372912162712986,0.1660475613342225,1554710908.270246
-0.9933295255114559,0.808244357124802,0.3189452321539607,1554710908.471412
0.43529154964457945,-0.36638944697372233,-0.5096392841124305,1554710908.673091
0.4754368388647609,0.8039217803594945,0.8674155354886186,1554710908.874506
0.453594656868367,0.6052315872280617,0.2915586150841309,1554710909.075752
-0.22135342769189803,-0.9982941904155817,-0.3447134462293494,1554710909.277674
0.40577973002486634,-0.06625225738622824,0.704994666926866,1554710909.478121
-0.4062287389846537,-0.16535300892192983,-0.8650202884042013,1554710909.6797662
0.33660092491675003,-0.4907633309381669,0.9832768913447338,1554710909.880686
0.7791961938508718,0.27777116380468164,0.559361833244755,1554710910.08235
-0.5646711111939369,0.32084832706893135,-0.6751944269610973,1554710910.282459
-0.3830027784858546,0.5345126760615526,0.42156854686351014,1554710910.48385
-0.32870971229073626,-0.5338370320929995,-0.9174360923469229,1554710910.685225
0.9152352560220814,-0.5415468834487789,0.3187433645433327,1554710910.8869572
0.6110378110366524,-0.12823972860280358,0.23963736015583703,1554710911.088007
-0.33225517864995874,0.4430160483863543,0.3478192246925998,1554710911.289264
0.45752228684401586,0.5266483613625486,0.2948694569513174,1554710911.490625
-0.7008896704226178,-0.24898159347259805,-0.7090650423369431,1554710911.691761
0.38122511845822676,-0.9439622420685482,0.5784668182727654,1554710911.892813
0.5817531590579231,-0.3642133780470186,-0.05565553940880295,1554710912.0948172
-1.8008777323273113,0.9308397821132917,-1.0820809667350006,1554710912.294815
0.651251010864631,-0.10874166099789744,0.4065973204795207,1554710912.496233
-0.32038919809700167,0.18465986156056827,-0.6658648410303317,1554710912.697513
0.11284612486992757,0.17309508452689917,0.06899957436675397,1554710912.8990788
0.08502115148467067,-0.5168511243443651,-0.3943837974043083,1554710913.100255
-0.7689070709793506,0.37767539104126013,-0.07761410154483328,1554710913.301361
0.3975982328400339,0.09589031084161106,0.1051373387785842,1554710913.502963
-0.047066045944970374,0.4562732642927687,0.4588117894438322,1554710913.704057
0.42761072674468187,0.5521659719793608,0.5197941836650116,1554710913.9054132
0.31838969675057016,-0.6583400793703129,-0.31255337922166154,1554710914.106334
0.15149072281584938,-0.21257192031347075,0.6910420996598319,1554710914.3071241
-0.5331328923007825,-0.24745320532300158,-0.5562097157785372,1554710914.508445
-0.4293143508940056,-0.4018081578912312,-0.27972965247032594,1554710914.709728
0.8159531432161454,-0.1967905603258792,0.22946381847562533,1554710914.911509
-0.37436188601298354,-0.2385736936164594,-0.45053468477586595,1554710915.112739
0.10587769756162622,-0.1439736843229917,0.1536838359735296,1554710915.313995
0.5113104176964552,-0.02432451444845674,-0.26316825259945015,1554710915.5153232
0.18856112624142535,0.20599204820821196,0.38179876335702984,1554710915.716331
0.2775181635011241,0.13116334684749256,0.06368470377928284,1554710915.9176512
0.0820916742855835,0.32248537219100304,0.1143028739862009,1554710916.118757
-0.3117722740739413,0.32529234397994655,0.09026917672878082,1554710916.3194032
-0.2023760080801024,0.18100627086108856,-0.3482557167952638,1554710916.5207481
0.21775043705312983,-0.4113731672623598,0.5146718596243532,1554710916.722086
0.6309361517533976,-0.025135447000385867,0.3156240039585229,1554710916.923644
-1.556090883887697,0.38171593904712836,-0.5957608537595219,1554710917.1249099
-0.12533954617570728,0.2252240660202192,0.07760344890047297,1554710917.3259711
-0.3713349371179995,0.17961024181766902,-0.2605887147675994,1554710917.527381
0.6107730928242986,-0.10614880736059629,0.2198601932686906,1554710917.7291331
-0.04062013084254259,-0.38390665535982754,-0.11945023174110606,1554710917.929861
-0.3388214686336581,0.40450008112108327,-0.2535611652830983,1554710918.131147
0.14962810794944795,0.0023401196498526265,-0.3173822229101932,1554710918.331734
0.10514159983632833,0.2783290960530532,0.18688626423187452,1554710918.532978
-0.293309377184749,0.2530386530772248,0.16509148650288405,1554710918.734762
0.39742379578863374,-0.5037254685958006,0.03590127570703119,1554710918.936065
-0.3131440683514411,-0.14528795432094582,0.07186566833189725,1554710919.137456
0.19908460728887345,-0.07119961174326843,-0.41193829004567456,1554710919.33852
-0.3564460024116935,0.008828379013612674,0.2657453935863198,1554710919.539387
0.2125229181494133,-0.4102421227474031,0.11398888729368056,1554710919.7410722
-0.27420705531782863,-0.6693301462407428,-0.14571805483699363,1554710919.941786
-0.13215670593409212,-0.1680172352764451,0.4476861676739172,1554710920.143322
0.30609414831378334,-0.06989013543527647,0.2917269268650239,1554710920.3464332
-0.15980191594576865,0.07666761409341913,0.41922310089147735,1554710920.545412
-0.09405246337334738,0.32874832812654237,0.34079620258195187,1554710920.747005
-0.0520882351286418,-0.1072409697236378,-0.0752420239618997,1554710920.948091
0.005616873055086121,0.3829335362975126,0.035736958667773294,1554710921.1489859
0.30942895863078057,0.009139169912824922,-0.3768732469209283,1554710921.350254
-0.4637623395941805,0.34113282614373786,0.2698035184553826,1554710921.551377
-0.14981373027742648,0.14219655692758185,0.18672567561814274,1554710921.753286
0.03846297035957841,-0.4427752986238111,-0.2493424518003038,1554710921.954072
-0.328332076048163,0.47799720193676304,-0.04363323129985824,1554710922.156414
-0.10217217522088998,0.2738278211786013,-0.22250391328281224,1554710922.356437
0.4015271943962278,0.14289004407543848,0.052921005601509585,1554710922.557718
0.477893072338141,-0.07977285992445152,-0.06385514608904791,1554710922.759212
-0.2055664750660173,-0.07486811614485259,-0.3782844559825613,1554710922.9602299
-0.7006169627269938,0.7101588025966387,0.14537530600470042,1554710923.205498
-0.010911237302163647,0.21206778391911874,-0.3115240674603459,1554710923.362589
0.8175182829887849,0.0243703208192061,0.6372915193787626,1554710923.5639539
0.5688338982938398,-0.2046852350613101,0.19817993146657353,1554710923.765359
-0.8410712796694457,0.42079702909571415,-0.6281494199887386,1554710923.9664888
-1.2992899831385174,0.2884256723777617,0.07894648103819993,1554710924.167777
0.468753369793098,-0.3328655751718049,-0.11051612523221724,1554710924.369201
0.24788836584512053,-0.9512651624097634,0.10204114769525807,1554710924.5704908
1.1394134986822264,-0.019474631787313436,0.5952101120460935,1554710924.771704
-0.10495997224998492,0.5450342928962376,-0.09967093432508756,1554710924.972639
-0.5368360177965377,-0.1788294029860578,0.4057901163531176,1554710925.173991
0.001439971201405844,-0.5989992576450582,-0.2021387204269763,1554710925.37502
-0.4296246091609998,-0.639725382298986,0.21181185413836212,1554710925.576329
0.7404978000509304,-0.06702057936071609,-0.18039427644258835,1554710925.777845
-1.323443522644991,0.15235518490568908,-1.0313922227591954,1554710925.979353
0.5484985328422127,-1.1673497922010487,0.16566885982721322,1554710926.180229
-0.05752294796516651,-0.5941110254642179,0.38400119757852536,1554710926.3822532
-0.27197266316325214,-0.8262784850784917,0.2468191066674537,1554710926.5825381
-0.17464051690747215,0.18687321474253313,0.0702509937629822,1554710926.784203
-0.4991719957639831,0.3764540653653498,-0.057121609588891564,1554710926.985157
0.41546964165111966,0.3609089277664483,-0.1512060308953199,1554710927.2046309
-0.031658061142207934,0.3481180313669067,0.04355546699602793,1554710927.3871179
-0.1844622550076844,0.18963011910298314,0.3517050430391344,1554710927.588592
0.002604837862206503,-0.1731329014143783,0.007616640717626621,1554710927.789758
-1.2610568435810128,0.9724098625166655,-0.5891311805418786,1554710927.991211
0.21516717079575295,0.12661200454454713,-0.35584332905700855,1554710928.192251
-0.15722690548777105,0.013359481292273491,-0.11652581454809004,1554710928.39344
-0.2365670017350847,-0.05165760198037599,0.22866300593583852,1554710928.595067
-0.11982680271924326,0.19200006615704465,-0.17752019299417485,1554710928.802885
-0.8493329380030896,0.5000833294890082,-0.1986126951437114,1554710928.999618
0.5267322509368861,-0.27656182235367666,-0.07599197012486603,1554710929.221849
0.2394786357548683,0.3358523103343288,0.4209970324935791,1554710929.399554
0.1677392012586408,-0.004052265914664569,0.11879562674516458,1554710929.6010242
-0.32785270705194874,-0.27734479171416,-0.050533748000362554,1554710929.802754
-0.48941736932324087,-0.1287553165898429,0.29295597570809545,1554710930.0045
-0.042603653222433605,-0.18406917243078869,-0.346513743126243,1554710930.204767
0.2179003730225013,0.027625502619609953,0.4726311986563624,1554710930.406311
0.46122248286257195,0.15830628467758015,0.37063878680905277,1554710930.607533
-0.23729191418380424,0.04281484189687689,-0.462803601601752,1554710930.808831
0.04624872180642506,-0.5655936301955403,0.5366743639183699,1554710931.010252
-0.17728530218602984,-0.1380074045328872,-0.27376097583524034,1554710931.2235188
0.2472518703445916,0.29433655841719253,0.4241113330723178,1554710931.411854
0.5239423233789191,-0.07859734061929054,0.41344137816491533,1554710931.613501
-0.3918404785632826,0.43343053267483206,-0.6073349518570063,1554710931.815079
-0.6627923520807073,0.2886158220795933,0.007843542042501372,1554710932.016361
0.41901830380365024,0.019625366705011922,-0.41617591197220866,1554710932.217523
-0.0747173812271541,-0.022324214153698223,0.2755881706591437,1554710932.4186668
0.5379598717765511,-0.2790297737358531,0.2118850910683393,1554710932.6198668
-0.16981966270221072,0.21546171641231573,-0.4311282299124585,1554710932.821231
0.05002881265768353,0.25426104401757116,0.19773385198398527,1554710933.022377
-0.39041755159285324,-0.31016052898222535,-0.15837286370483214,1554710933.222924
0.38532159284698664,-0.24261157846123754,0.8344679717465943,1554710933.424367
-0.2536394622191466,-0.2927796744439322,-0.08305680386462823,1554710933.625907
-0.6603659460115362,-0.07077590281383683,-0.6127156025234024,1554710933.827209
0.7576075447902534,-0.20504635970512483,0.35499564488203633,1554710934.028363
-0.3619116079168631,0.3023766417481418,-0.029637787139273827,1554710934.2301102
0.1639300819515005,-0.02501427317078726,0.034891937653891154,1554710934.430976
0.11034275344525307,-0.2191469987287674,-0.1728367579011615,1554710934.632391
-0.6385884788296312,0.0371854519846674,-0.11899722803968357,1554710934.833544
0.05692426935211669,-0.3213537950438284,-0.4248362455210373,1554710935.034848
-0.18515281267834194,0.39155631927497114,0.004590757087078591,1554710935.236003
0.16541106583369355,0.11199098384390312,0.3520664339990582,1554710935.4371781
-0.8568230785689375,0.23017621406722152,-0.7669507128425784,1554710935.638186
0.5189430373806223,-0.7835978665005547,0.478364984483303,1554710935.839679
-0.28723390778995117,-0.036622193414115635,-0.16165281290337372,1554710936.0407748
-0.7057536678375386,-0.6939111231021743,0.02692429230459209,1554710936.242003
-0.05472210144673017,0.23718645300463712,-0.04213440423836164,1554710936.443356
-0.21562976187709973,0.13889077506646647,-0.2003027371714757,1554710936.64464
0.4583207025388216,-0.14486584328816826,1.1973620197895876,1554710936.8458018
0.9072383159007915,-0.3643007297307732,0.1842039283819467,1554710937.0470471
-0.1061924832024736,-0.06345726982219008,-0.2057811258498777,1554710937.247803
0.40869988616013825,0.021447501522844137,0.06042419565669883,1554710937.448917
-0.37274428196686943,0.162368404288278,-0.7001956506425432,1554710937.650507
0.22153984896820358,-0.6735264891703807,-0.15263588208458345,1554710937.852006
0.18989190783813795,0.1748666192840199,-0.9174800345049092,1554710938.05323
-0.24801619757744434,-0.20421731765778317,0.47656468758640946,1554710938.254685
0.6568873249956747,-0.145596881007395,-0.28355954443396886,1554710938.455751
-0.25258431779525725,-0.3068789818870297,-1.08041675736981,1554710938.6572242
0.5364021888549638,-0.190700709861195,0.1531818301080497,1554710938.858169
-0.005391303310756409,0.5805464807680083,-0.04645351889425215,1554710939.059438
0.01708977103114748,-0.21012980159386807,0.30396654891891906,1554710939.260047
0.17861315430554336,-0.16046664095385244,-0.1136440079325153,1554710939.4614139
-0.4965242810082263,0.2804849249554724,0.17728796534711994,1554710939.663229
0.01832654304138028,-0.7085625038392451,-0.06917694089535326,1554710939.8642511
0.19199687036373655,-0.0833955579552863,0.3920929462346221,1554710940.0653949
0.024726119140840688,0.3618982921114127,0.03240561046019318,1554710940.26631
0.2153128457073803,-0.0017318536568785286,-0.6662989362880147,1554710940.467767
-0.6899784331204543,0.2506026596281293,0.012842828040798119,1554710940.669455
-0.06370734064854851,-0.21919014193842665,-0.6869008841647587,1554710940.870232
-0.26299408186415896,0.4319804414612839,-0.05411303650542905,1554710941.0720968
0.7747708190674871,-0.19869258997641379,-0.3093083174334,1554710941.2729058
0.09230756022712747,-0.10596558187759884,-0.7227483640177702,1554710941.474067
-1.1709517175753807,0.41058646947635036,-1.011517051543934,1554710941.6755
-0.27881565558421073,-0.19527735219449618,-0.38048236283020365,1554710941.8766708
0.15269979795074534,0.44683688560229096,0.8868395672152205,1554710942.077682
0.37323536887188,-0.06400561469063738,0.5617754561406938,1554710942.27859
0.427278896872858,0.0667220390025182,0.0780681705106918,1554710942.479858
-0.39690740885326736,-0.16471305131198377,-0.3171667731780058,1554710942.681504
-0.2057068236554645,0.2386714316284653,0.595594672507501,1554710942.8829498
0.1931044790611005,0.060626063267326835,0.4227350114209648,1554710943.084146
-0.2493054338611517,-0.7896035610747925,-0.06058824637984771,1554710943.285037
0.1668752718010191,-0.504749454034936,-0.24696744474017113,1554710943.486205
-1.5615469020129424,0.5176500726713889,-0.5598587791041637,1554710943.6877298
0.147143112336295,-0.5021081308657954,-0.07565321603420794,1554710943.889583
0.5074296593559918,1.100416564524087,0.5848815743904392,1554710944.090098
0.6916389140601187,-0.41999248813040124,0.28249561157848224,1554710944.29112
0.9429949819606314,0.07072503643701632,-0.008136223446301081,1554710944.492805
-0.36502164743785764,-0.042398323502388494,-0.24502626662161237,1554710944.693791
0.3057223710256083,-0.3095860851350952,-0.47980016199474673,1554710944.895242
1.1061988198828672,0.4292075581342934,0.3799124463569267,1554710945.0965118
-0.05799379484589252,-0.16637486383219321,0.36734791865004185,1554710945.297196
0.7609620624993172,-0.21277059213079066,-0.38450826345007644,1554710945.498538
-0.8494658297414845,-0.479204945491114,-1.628109950298383,1554710945.699975
-0.09883763122000176,0.04067579090932524,-0.4818092507211025,1554710945.901473
0.10674988281862717,-0.7098578653934597,-0.5673811439192016,1554710946.102674
-0.2655251501641703,-0.2676255853159158,-0.39739476733275186,1554710946.303298
0.21420843280332444,-0.2526631473635236,-0.3976317886697689,1554710946.504673
-0.5253396840028837,-0.2041169164846872,-0.7783847286667246,1554710946.706109
-0.15088591893229236,0.027888356619200774,-0.510293356476154,1554710946.9076471
-0.027998877804439062,0.39015496390937143,-0.07255542705422777,1554710947.1087952
0.16817356283243273,-0.1282064390891776,0.24928093277912297,1554710947.309562
-0.011106180693957447,-0.05798793589149434,-0.2984354296509335,1554710947.510728
-0.7709403944716261,0.2793040793281313,-0.6357468859465166,1554710947.712316
0.28195206039999704,-0.22843290881765566,0.3729006095228571,1554710947.913598
0.1916993952699747,0.9039077666415384,0.03284503204005625,1554710948.1148171
0.5681087195290112,-0.16902683964569412,0.16764838746546912,1554710948.315676
-0.035151595860173884,-0.2209227945436322,-0.014132863272832502,1554710948.516746
-0.6460597109517395,-0.09239943928473521,0.12719789998436457,1554710948.718446
-0.012726447901161656,-0.22934717201987986,-0.10541936753802358,1554710948.9196692
0.25471085192568554,0.1550513691932853,0.30384324456044837,1554710949.121337
0.20030806349365585,0.12349424185639138,0.48149020402251097,1554710949.321804
-0.5410688460331097,-0.07531499457576787,-0.4247512906822638,1554710949.522987
-0.8079564694109644,0.02706171141684018,0.3672895954221691,1554710949.72467
0.2770134944745541,-0.2592286383988959,0.2683483672357633,1554710949.926149
0.16287600279204711,-0.22059762257453353,1.0756619495595827,1554710950.127353
0.6761030975250324,0.20102418751077816,0.5190716680612731,1554710950.3280191
-0.5307134104504455,0.08831095437924555,-0.25212811830052667,1554710950.529139
0.29576268118092996,0.23725383098021613,0.46415702006773024,1554710950.7311602
-0.34395923900863895,0.24035694628237644,-0.2790638621978061,1554710950.93231
0.20432837147523947,0.049535062591582836,-0.11568159248253493,1554710951.133678
0.3273368527488004,0.004493285391181691,0.07768227846873932,1554710951.334151
-1.1411232481020572,-0.05063068706404144,-0.5015845533954859,1554710951.5355392
0.552674369431457,-0.2634079370975573,-0.5686866254855584,1554710951.737288
-0.10645746773093648,-0.15198021182420593,0.35629260433290494,1554710951.938335
-0.0835364391769515,0.1610597269286131,0.4298184872883576,1554710952.139727
0.0006695186980459205,0.5787459175550057,-0.3755496558591589,1554710952.341084
-0.1797505904071162,0.2539507857505769,0.318081302696339,1554710952.541738
0.021008878891308088,-0.3657529514731934,0.1898429056740805,1554710952.7430859
0.08116516054234495,-0.4702623168667369,0.5350567598722558,1554710952.944593
0.6910271859577274,0.38532745180138483,-0.28497794403054505,1554710953.1457272
-2.0202178102351094,-0.3893139376371244,-1.2874615531569304,1554710953.346506
-0.32686227744254825,-0.1971442281186417,0.2522253236803146,1554710953.5478392
-1.3554509905222174,1.0886019829801687,0.039699742369811206,1554710953.749425
-0.5954921408055329,0.20024468025971195,-0.4698521900588647,1554710953.9507132
0.7192476387648611,0.4407249309005591,-0.2333744042202977,1554710954.152971
-0.2622169714580739,-0.8052208703392351,-1.2353256474447762,1554710954.352994
0.7890248561699182,-0.15593687025573666,0.09707861332000442,1554710954.554494
-0.35409549643358956,-0.04770919934822451,0.73392911322225,1554710954.7556949
0.1995325509842248,-0.6444333184740281,-0.006431267716432353,1554710954.957751
-0.5517047124785591,0.11099416264788646,-0.7718053891936839,1554710955.157753
0.23317147134523367,0.2475139253958554,0.19367732501157656,1554710955.358793
0.15210058670547752,0.1695096707513255,-0.5256009401058205,1554710955.560081
-0.44265971743250165,-0.2439143968665043,-0.5503305213560782,1554710955.761591
0.08595485576285246,-0.22417318265407393,-0.3347377774181306,1554710955.962909
-0.9765566706500279,0.6478565457392159,-0.48147102926266244,1554710956.163779
0.6272263683549172,-0.49663773167066366,0.6078318977164151,1554710956.365555
0.061832208925023724,0.2790161916142937,0.3181119290488749,1554710956.5669022
-0.22600943222568357,0.18386544060739762,0.4633855022999343,1554710956.7681742
0.05627179488504728,-0.14805444606132012,-0.4337589004372388,1554710956.9697351
-1.0336164949016295,0.35879970418310553,-0.3830714880419787,1554710957.169941
0.5376277755886183,-0.2383425312338405,0.20616621894350315,1554710957.371203
0.5938875862487601,0.16761136952631703,0.40459568860421713,1554710957.572715
-0.019726300510325926,0.2097063589805455,0.4538082423877914,1554710957.774095
-0.31938385478549675,0.03461843100994002,-0.17867387437839716,1554710957.9755712
-0.38878103910299955,0.14239975611875488,0.3702004304936257,1554710958.221525
0.44283442080001084,-0.5208961997240864,0.2134409097771636,1554710958.377291
0.229082720123635,0.6741802952179952,0.5572033411812457,1554710958.578877
0.04020467771249023,-0.23402208499740496,0.42075255430550984,1554710958.780253
0.03274542981528729,0.09806185239446168,-0.3988589733000774,1554710958.982131
-0.0461392658856228,-0.25527783892176337,-0.04962747428140859,1554710959.1825352
0.3917259626364092,-0.5429692777869902,0.16605901292690983,1554710959.384112
-0.010849718280982816,0.03970000868592021,0.3403543841571077,1554710959.584933
0.6395781094907046,0.12831030237169067,0.38385951740853314,1554710959.78702
-1.0863074033849565,-0.33459769514479243,-0.611259918671565,1554710959.9877548
-0.1924240414025853,0.024671524338494063,-0.00032703618186173043,1554710960.2226682
0.1293057919871623,-0.2131317167746054,-0.37438558814668527,1554710960.389529
0.12789964293160044,-0.05286188342530982,0.37525138181707,1554710960.591164
0.6655444627511953,-0.13762097985871669,0.15281777598703586,1554710960.792666
-0.8734931354122885,0.4999653514527177,-0.004817392095844334,1554710960.994077
0.2470377521929492,0.5092794910491608,0.10161743876582646,1554710961.194905
-0.18150907567489552,0.2395113926362763,-0.4900051289758213,1554710961.3962178
0.15217568784821775,-0.2545481327830817,0.8380824139780498,1554710961.59762
0.8430417525599954,-0.40294346346393195,0.030553914554261083,1554710961.799261
-1.1188717382461182,0.4036193737485941,-0.34835398743948776,1554710962.00001
-0.48329662618991176,0.26511449072408005,0.046800528784289475,1554710962.224249
0.057303237175234965,0.1154925080451393,-0.3061519389094381,1554710962.4019918
0.18235968932706684,-0.407483620490299,0.36331189801802677,1554710962.6036959
0.20253047142332697,-0.29299938523386376,-0.3057599215969784,1554710962.804965
-1.1434380677215543,0.30805343592775464,-0.5536379011138476,1554710963.00635
0.3970003531753111,-0.15371313074552048,0.08802786035537014,1554710963.222132
-0.26285133642973074,0.5686525370236054,0.041062748215713755,1554710963.4081569
0.43924128385727595,-0.006713030159762736,0.6211085546987871,1554710963.6095738
0.14459286927643514,0.22911760753391502,-0.33129910381862027,1554710963.8110418
-0.9616972970318218,0.2710512094260847,0.20327562389633114,1554710964.0122771
0.4722940424623584,-0.014262026585701344,0.08305467333575617,1554710964.213589
0.20887838219763985,-0.14444106909430063,-0.25580700903036213,1554710964.414875
0.237720683119307,0.08411035039186357,0.042439602499284725,1554710964.616216
0.1743222691572077,-0.40994677818251335,-0.2534663567482915,1554710964.817416
-0.9418985585398457,-0.09828369371326527,0.042620697453410114,1554710965.018499
0.06302610404170625,-0.1276666163362185,-0.12015144205612392,1554710965.219339
0.04687483097870269,0.2530221414784663,0.2951656004645342,1554710965.420411
0.07626228097550906,0.41115052699522914,0.20581601326015772,1554710965.621787
-0.3414199149092484,-0.2815331451605276,-0.02325578790300794,1554710965.8233728
-0.27680310474843783,-0.10517302513719126,-0.11521553929177106,1554710966.024622
0.21041875457214168,0.2240307035357547,-0.20613505995874923,1554710966.2461019
0.2773562433068473,-0.04226756229286561,0.3602399417006204,1554710966.426587
0.3960655836326933,-0.18520767379679756,0.25676255122948255,1554710966.628123
0.005509547663155928,0.49234844441898207,0.0659856749611113,1554710966.829359
-0.32730196533852035,0.6394377609012575,0.23080152429117215,1554710967.030705
0.16839886626065345,-0.017125990021972556,-0.11652687981252607,1554710967.231958
-0.13038969855082455,-1.0035728420122279,0.3970272511023209,1554710967.433367
0.5837428067083213,-0.35068691655439715,-0.24372185031969157,1554710967.6346378
-1.1412891630379693,0.4776182341136448,-0.6703677138014378,1554710967.835919
0.17076934594693297,0.002482332452062858,0.16880553095910855,1554710968.037269
-0.4800518307177592,-0.17907281590969104,0.5862528360357211,1554710968.23789
-0.0564941688360689,0.14328472454898822,0.09203884727313848,1554710968.439042
0.28621098761525177,-0.17222449716655228,0.37101828726438907,1554710968.640645
-0.06274194475339478,0.2575463195382929,0.10708277795488708,1554710968.841902
0.776650478164865,-0.17716812309806637,0.2001512033054502,1554710969.043257
0.10244461660040508,0.21624122366338192,0.006686664864970951,1554710969.243819
0.5881846930904645,0.21789131827479502,0.15257249885063956,1554710969.445277
-0.638212174167603,-0.5732930952230685,-0.35475116669396706,1554710969.646854
-0.013236709566020837,0.23974495186387623,0.26512034967847825,1554710969.848165
0.3368893452628056,-0.26935504212781325,-0.2550512039129976,1554710970.049684
0.309915251845829,-0.16110446803492642,0.4947841715519685,1554710970.2503018
0.3999330261677064,-0.012150406157377516,0.13813976363906413,1554710970.451851
-0.016080965610225463,0.40669452585930854,-0.324097383598828,1554710970.6531239
-0.11295717868738386,0.5306694682924592,0.2265814792278326,1554710970.854259
-0.1016957357018748,0.14196166611943684,-0.17535237986685034,1554710971.055656
0.006260292774449265,-0.5790111683995776,0.4484158738125989,1554710971.256196
0.6518313136661592,0.08553327736229291,-0.4109944657553505,1554710971.457653
-1.2619964068135927,0.5946255481868211,-0.48438559275964516,1554710971.659075
0.19526669955013587,-0.27899515264168206,-0.05741775310210837,1554710971.860505
0.2140193483659288,0.39435024157457327,0.6652957235053818,1554710972.06182
0.3477680919996703,0.46910730390196953,-0.255298611578266,1554710972.262951
-0.07649024756481984,-0.17570285186630477,0.0018628811825104272,1554710972.464355
-0.06124018821469911,-0.02078144493421532,0.6792307139092214,1554710972.665355
0.24976775862638945,-0.2126342382829786,0.05905346664363505,1554710972.867117
0.6108756245262666,0.3431664159521224,0.2878464348406694,1554710973.06796
0.6411176829168794,-0.23500532407186223,0.24474743365548107,1554710973.268646
-0.7938084261199185,0.08842174188059285,-0.3001704791011201,1554710973.46981
0.8200152628268432,-0.2993765907801675,0.42690738590079197,1554710973.67152
-0.1547118161543002,0.171643395416697,-0.4358382966163727,1554710973.87305
-0.07348513659077444,0.005378786453633037,0.3149757905491976,1554710974.0740871
0.7573590718605491,-0.007933024255128035,0.19997570098961395,1554710974.27567
-1.069690077131189,0.04564338529065005,-0.6281254515389278,1554710974.476507
-0.23429053163528496,-0.7440003895166025,0.3616210570419355,1554710974.677671
0.16668299157031538,-0.6110849489879469,-0.40749081102524226,1554710974.879004
0.8199364332585769,-0.05069540187853036,0.2594789755413634,1554710975.0802832
0.5696158023898871,0.14854500033411272,0.4757313844813236,1554710975.28085
0.26838352096215234,0.10583135855865884,-0.4037117854384198,1554710975.482111
0.020656542679090603,0.12284443055041204,-0.08746619968147241,1554710975.6836472
0.004012851130531396,-0.049271675959774004,0.21527023512993904,1554710975.88512
-0.1086529777335978,-0.13174764439065595,0.3448772306363893,1554710976.086447
-0.3965087336380825,0.020730844873503813,-0.263062258788065,1554710976.287543
-0.6847264131347089,0.12748179295656703,-0.02961701448277121,1554710976.4885988
0.10937469438900928,0.06043804409436724,-0.27505260896392875,1554710976.690137
0.21885325206053163,0.6294937837070106,0.5143416276491835,1554710976.8914618
0.043426836315377096,0.2734619028448244,0.02400333722099318,1554710977.092396
-0.021728731333956506,-0.08537295506467014,-0.5074826562616843,1554710977.2931828
-0.25474866881316466,-0.40783089669644534,0.022827817915832205,1554710977.4944701
0.27531519664741055,-0.25157551237433523,0.10397273843389254,1554710977.696002
-0.22479183497529934,0.2264848064802627,0.00391484680241648,1554710977.897377
0.783741144567201,0.07263825136412924,0.32374478107050153,1554710978.0986562
-1.1781315998742345,-0.31317895576172117,-0.4063754791607171,1554710978.2993078
-0.14070678461379152,0.006971090469391414,-0.1756703613010058,1554710978.50076
-0.060524596829794816,0.2551310987457,-0.25640169290177683,1554710978.702208
0.17718809680624195,-0.5612313723299905,0.5705865246072209,1554710978.903568
1.1431845347857787,-0.36168204343089827,0.462635556136968,1554710979.105031
-0.28450683083371003,0.3428084871016157,0.17775588275064685,1554710979.3058891
-0.30885957478972165,-0.20550335814818244,0.14219655692758185,1554710979.507402
0.2013514900087489,0.10049305215359501,-0.27204190535159417,1554710979.7086868
-0.3394795357390167,-0.6498507207634673,-0.1092077141886613,1554710979.910116
0.16870140136048645,-0.23763386406777043,0.13879516758333263,1554710980.111136
-0.46678848954083757,0.24813097982042676,-0.5874816185626835,1554710980.311621
0.4183317408746278,-0.3635284130146502,-0.13418363783975143,1554710980.5129108
-0.18680983150858924,0.09706130277291891,0.04504151088429214,1554710980.7145948
0.005799299589756549,-0.08767232834984455,0.3675572431117221,1554710980.916024
-0.09176161220366122,-0.14738572631160124,-0.05460811815207478,1554710981.1176891
-1.1512688265908233,0.7595303470972906,-0.6002136591021344,1554710981.318337
0.07412216472352139,0.0068232850288920165,0.07765697843838357,1554710981.5195541
0.8020328001983013,0.6481998272037272,0.4269257617123135,1554710981.720768
0.09678060559402456,0.3561325483513912,0.356025755591679,1554710981.9230242
0.12470944226179453,0.014301441369834517,-0.010841995113821586,1554710982.123369
-0.06464184387505732,-0.24729714408312295,-0.10780209776531749,1554710982.3240352
0.12719710103603754,-0.31041033349247477,-0.2662314204852593,1554710982.525309
0.37428438802526226,-0.027577832036097535,0.23632784986919556,1554710982.7268791
-0.1882370195367627,0.3414896897298085,-0.03300934907931414,1554710982.928221
-1.0093681468603493,-0.47184316928980796,-0.09862191517170533,1554710983.12952
-0.22735779068559067,0.13144457665860493,-0.13098731189943832,1554710983.3307428
0.5294899542456631,0.056757289151768725,-0.07027735905777399,1554710983.531958
0.3522813510990276,0.09830739584696699,0.3397378623647544,1554710983.733278
0.3530909520704117,-0.0044879590690015325,0.41831656085641433,1554710983.9347348
-0.2535640947602974,0.30616392313434343,0.04425641099493678,1554710984.1354961
0.0030152309861877133,0.4706804331578794,-0.10404704062830576,1554710984.336432
-0.01219887568921696,-0.10548062024309542,-0.13615331178197404,1554710984.537602
-0.6394350977401674,-0.05352554316895757,0.2904161189764869,1554710984.739253
-0.2960180783294686,-0.2316268379129877,-0.13895948462259053,1554710984.9406018
-0.6249070213615672,0.22129110972239016,-0.3821612195813896,1554710985.141885
0.4592101983429081,-0.14494280864367154,0.06832206618543782,1554710985.343246
0.24490748963699485,0.7936339890685183,0.6337646951471707,1554710985.5439792
0.10579647114837881,0.1294874195735057,0.269549452887389,1554710985.745226
0.19800203230575625,-0.3524861481868547,-0.028897960988449815,1554710985.946778
-1.3440412094639909,0.2227105745834024,-0.4181170900907674,1554710986.1479259
0.4196239066355342,-0.5290103189333398,-0.3313363880738814,1554710986.348412
0.22088018396619094,0.06766346644786123,0.11953358868322554,1554710986.5498729
0.5912896726053879,0.40833742993577843,0.27026318005953026,1554710986.75143
-0.43255781478561306,0.17193101681442555,-0.308939469622424,1554710986.952899
-0.5000662852580317,0.4344430665212802,-0.005104480861354876,1554710987.1558042
-0.1906069665908242,0.06499231587451175,0.03099333613412416,1554710987.355295
0.12368439155822304,-0.4285420341778826,0.21999894396148373,1554710987.5563478
0.31662375463173864,-0.16733360182462176,0.0027726170108814947,1554710987.75755
-0.5750510478586297,0.1445372092096525,-0.6942703835332259,1554710987.959159
0.4390660478575487,-0.2060743398858954,0.13585397247544911,1554710988.160252
-0.4331703418363313,-0.15710280218097336,-0.21265234777839115,1554710988.360865
0.26284840695253164,0.07483748979231668,-0.020566794150354933,1554710988.5621629
0.5288076523743849,0.36198937222069344,-0.24050848014840195,1554710988.763813
-0.5243900007581614,-0.09634730928466867,-0.0031622374783600873,1554710988.965208
0.43684177571511457,-0.41539134471507133,0.23812148886336393,1554710989.166765
-0.527869953354568,-0.25463095709298317,0.1414021359744112,1554710989.367484
0.7378122684076944,0.6936597206952707,0.2705121856214527,1554710989.568451
-0.5340852387065949,0.15463884554043203,-0.06322983586509731,1554710989.770062
-1.254543550503006,-0.28640140363319244,-0.7412871609980298,1554710989.971338
0.42147720043812037,0.0655654281410968,-0.3088446610876172,1554710990.172447
-0.1963029355302857,-0.16055186210873498,0.11176674568011845,1554710990.3732162
1.1190576268902057,-0.03160799371371445,0.3347036889561776,1554710990.574477
-0.8308079894604984,0.5432699486740602,-0.1187863056813493,1554710990.776239
0.0979987354766268,0.8576995248836825,0.40165289559967954,1554710990.977696
-0.15883652005061494,0.014608503843520653,-0.14480512321531444,1554710991.218184
-0.46784975923523414,-0.08182029817050443,-0.11753967997508322,1554710991.379291
0.1370896792212459,-0.16601320655616048,-0.19004077854307336,1554710991.580801
-1.1694262589029834,0.272607560767127,-0.4994745308638161,1554710991.782193
0.16292926601384872,0.048328384301667936,0.0310418056659636,1554710991.983581
-0.28405356081617855,-0.0011491540103691913,0.15664154268017164,1554710992.2248049
0.07862237433353729,-0.038776158103771725,0.21538102263128633,1554710992.385429
-0.2710978147451611,-0.3629792691978759,-0.01964001409100736,1554710992.587085
-0.43327287353829935,0.20510974293906872,-0.2946761114561776,1554710992.78845
0.5582014939578074,0.06242369700313032,0.3494006097478889,1554710992.990015
0.3232678089192683,0.8055103559497268,0.317207519542684,1554710993.234284
0.21535732049758463,0.20649911407976307,-0.13847239245921503,1554710993.391618
-0.05532104637588899,-0.3673223523035771,-0.15219885734970143,1554710993.5931911
0.07548117582778882,-0.514496623624626,0.18471632057567794,1554710993.794616
0.034484207691000024,-0.21418686119849478,-0.22632261996987688,1554710993.995795
-0.027013241885000736,-0.08862334317511185,0.5124300106187245,1554710994.197062
0.4486177414232269,-0.09751031173270627,-0.11169697085955838,1554710994.398355
-1.5019815758077941,-1.0370285368902392,-1.0538413391680184,1554710994.599591
-0.30592264073958225,-0.02470907490986418,0.15597282293045273,1554710994.800943
0.15991456765987902,-0.43877017066044094,-0.3037724044754523,1554710995.003756
0.32316181510788317,0.0005262406313996575,-0.030963775046024277,1554710995.212727
0.45681255441350976,0.1060081924550401,0.15104357806882507,1554710995.404012
-0.23842349133097893,0.40252641243722553,-0.10207283931223002,1554710995.605474
-0.1934669352854603,0.6586063954793208,0.12766129001403836,1554710995.806886
-0.11076806027133873,-0.023371635410426386,-0.4998111544256021,1554710996.00915
0.33052758605082433,-0.5666631556893161,0.7040242110256412,1554710996.209361
0.6001026052846781,-0.03177177812075432,0.014315822439720944,1554710996.410509
-0.86453745729857,0.321878171462465,-0.0912130010191049,1554710996.6117759
0.16664357678618222,-0.0019699402583316125,-0.022424881642903217,1554710996.8130689
0.1586437071876932,0.47170521754534184,-0.10493041116188503,1554710997.0141602
0.27817489902593767,-0.46960611397414137,0.7187107454891011,1554710997.22804
0.2679768562636972,-0.09357735543487725,0.1167023821283623,1554710997.416173
-0.7287679070296763,0.2851870021761163,-0.3161273414045479,1554710997.61794
0.6866494817578552,-0.21571871145750837,0.041478733977984135,1554710997.8193579
0.09191793975964888,0.18469022159699516,-0.25796496846165334,1554710998.020376
0.5620958344198302,-0.051412324843979694,0.6764354600290743,1554710998.2216458
-0.34097756385218625,0.1603302871060404,-0.1474520390227442,1554710998.423146
-1.503323808997194,0.023701334753378198,-0.9903028429325809,1554710998.623987
0.5647440818078051,-0.2417465837391798,0.13450747822830506,1554710998.825645
0.48397466700344594,0.8896023305300688,0.10258496518985226,1554710999.026803
-0.14586053395531284,0.195707985342762,0.039239281817336505,1554710999.22723
0.31351904143292425,-0.23353499283402948,0.021556957443646392,1554710999.4283671
-0.0865311638227456,-0.0848571007615218,0.14236220554738477,1554710999.630053
0.14109826929403316,0.07712913991032985,-0.3748561687113023,1554710999.831365
-0.31888983840328705,-0.3179971468058925,0.5739445044257018,1554711000.032532
0.41248929807521195,0.2929517146503513,-0.1545102148597812,1554711000.23384
-0.06208227975138216,-0.49850221074982815,-0.28287298150494644,1554711000.435055
0.16758633581207028,-0.5988732901254975,0.6575019825752649,1554711000.6364598
0.23718778458518217,-0.30604727667859793,-0.4038092571343167,1554711000.8376389
-0.5098696475467224,-0.15583167539267853,0.2861076569649567,1554711001.038944
0.4846598983519233,0.04062066347476061,-0.058378355307299956,1554711001.239495
-0.9182752544064069,-0.6048321130645499,-0.781791710649263,1554711001.4407659
-0.07465106851601112,-0.25959855147430794,0.5550704154642012,1554711001.642295
-0.2054458338686367,-0.30656206571731026,-0.3797715651352615,1554711001.843838
0.32148082782782517,0.10624281694707609,-0.44043784213504855,1554711002.044905
0.3997106522166848,0.25355530632870016,0.28965472122083324,1554711002.245996
-0.17038611706607057,0.3181444196141739,-0.15830814889034323,1554711002.447349
-0.3379660612915247,0.421966423130368,0.20142472693872607,1554711002.648683
0.20161274611168567,0.05397055738710981,-0.06991650073006826,1554711002.849773
-0.025929601637447494,0.12423326905888837,0.7261851734045175,1554711003.051023
0.3054496633299842,0.00529889162093066,0.050927363209476266,1554711003.251939
0.41564381238641085,0.4539371393845512,-0.12314350354082794,1554711003.4536362
0.15135863002578143,0.3541737933696379,0.3146282480269423,1554711003.6549969
-0.2741833531841269,-0.5956857526167817,-0.12798433145426497,1554711003.856326
-0.01601864764071761,-0.1122865947249019,-0.13837651865997216,1554711004.057224
-0.1888154581255279,0.045428734506789664,-0.278757066040229,1554711004.257987
-0.6967662981068482,0.44345120890847317,-0.4926547079443412,1554711004.459393
-0.15565510781240627,0.08110923415945327,0.08874718016580053,1554711004.660872
0.48048459439489705,0.6409629532575458,0.17647223910522866,1554711004.862205
0.5014897448606791,0.20032137929910626,0.5042197512941192,1554711005.0629358
-0.09998731786258896,-0.15416613444694297,0.006041114616735744,1554711005.264771
-0.02351757663816273,-0.0031324100741512,0.0653001772965249,1554711005.466119
0.2508916126064029,-0.014025537880902309,0.022371618421101632,1554711005.667136
0.32536930933544983,0.8796594186002579,0.2034993294278978,1554711005.8685079
0.12648443912833235,-0.01109819121068721,0.1579185284228646,1554711006.070284
0.2357102628124062,-0.16657380196562213,0.03967018128171133,1554711006.270273
-0.7840077269923179,-0.20374380761596708,0.08812160362574092,1554711006.471611
0.1472461766704811,-0.31668713786568253,-0.3995772278460718,1554711006.6730928
0.517990957290919,0.2660242265524511,0.9713690991626626,1554711006.8744478
-0.027482757185181707,-0.05798021272433311,-0.04872146687856363,1554711007.0757608
-0.36627120262132284,-0.22525895343049923,-0.4708833660329434,1554711007.277014
0.7219510135874005,-0.5726978787194358,0.5129357449097306,1554711007.478116
0.3402329440114001,0.039841688855912424,0.09903523777288564,1554711007.679362
-0.053694121265959585,-0.32447821563470935,-0.15090429474381392,1554711007.880629
0.5962580659350397,-0.12944560794439144,0.21197803539038307,1554711008.0817719
-1.2805048437574253,-0.49660630636980074,-0.774296510077344,1554711008.282621
-0.4135250014231438,0.2232756973667172,0.337810266367755,1554711008.483697
-0.6094564259813634,-0.2252552250049731,-0.8383492627192758,1554711008.68524
0.4456334031056841,0.14814659143503686,0.8347963395090011,1554711008.887254
0.7779756671232885,0.22302136548261464,0.11885847734689045,1554711009.088027
0.049599777406071764,-2.663161090079238e-06,-0.26112134698561523,1554711009.289176
-0.16490293469770642,0.14701315007509916,0.07890094098355957,1554711009.490687
0.4269039237913749,0.0762332525196272,0.09806691240053282,1554711009.6919022
-0.18146886194243533,0.016837569675916975,0.3438804094403726,1554711009.892978
0.3977092866574902,-0.23531105496500332,0.23965227385794147,1554711010.094233
-0.4288211334601229,0.2523105448351971,-0.1531615900837651,1554711010.295007
-0.38654824484507716,0.4585143143500704,0.3706909847664183,1554711010.495984
0.6409469742910053,-0.16713999001337299,-0.05435032415855511,1554711010.697698
0.13785853382795177,-0.5916220351094298,0.30648376878126193,1554711010.89891
0.12419518585530023,-0.0014341122470076697,-0.08543846882748608,1554711011.100256
-1.7082266243195636,0.3872856741509201,-0.691718009944494,1554711011.301358
0.5990210955659969,-0.40935315957553464,0.03242877996167687,1554711011.502341
0.4306475293356992,0.7218351660799821,0.35312663842901876,1554711011.7042599
0.3698158700322183,0.32289203688945817,-0.17788824185682378,1554711011.9053001
-0.2093638764643613,-0.24258920790808086,-0.31993486281503414,1554711012.106535
0.2948819738084408,0.06352278358500602,0.31874469612387774,1554711012.30694
0.3478828742426527,0.006584133163002901,0.01025796388676721,1554711012.508342
0.23037834799395854,0.3243522481151486,0.49285923871605924,1554711012.7100282
-0.25942304915847175,0.1983269379587459,-0.0069822757459697465,1554711012.911252
-0.24184858280892982,-0.46601191176697043,-0.2658652358353734,1554711013.1126862
0.21986578590697978,-0.7932310527955894,0.36624297311376797,1554711013.313507
0.2530333267550446,-0.17801554095692956,-0.24505849087080234,1554711013.5150108
-0.07719225682816473,0.0245753842231422,0.5409697764405587,1554711013.7163172
0.7513895962771364,0.05838820900333325,-0.000440486844299106,1554711013.917629
-1.120346863173913,-0.48776381260241064,-0.6995932436039674,1554711014.1187248
-0.625944056290044,0.17950051958075774,0.023982298248381557,1554711014.319353
-0.09744320007323627,-0.16108449432675082,-0.3715714258227985,1554711014.52055
0.10727079712784668,-0.17784243548607442,0.3758023898466074,1554711014.722261
0.7700197396827857,0.017028784642184665,0.021401162519876758,1554711014.923872
-0.1841000650994336,0.6601795247352306,0.040545296015911364,1554711015.1249561
0.09027610094761503,0.5200807397983042,0.419111248125694,1554711015.326035
0.05097316958022563,0.4709744461422241,-0.12680321951081483,1554711015.527307
0.45487057734662395,-0.6951676025044736,0.44994665880717644,1554711015.728613
0.09500694030803178,-0.2694202895745202,-0.0652932530776907,1554711015.929812
-1.165248025468758,0.2839949712721968,-0.7671693583680739,1554711016.13094
0.4746080631335282,0.03532123922161193,-0.0777222258850905,1554711016.331573
0.09107504927463879,0.24443690907237783,-0.07238418579613567,1554711016.532897
0.46046268300357235,-0.15332058080084282,0.62366066197141,1554711016.734338
0.41756847890621107,0.2124060053775588,0.11583072950357937,1554711016.9358249
-0.19192230185321435,0.07343853127169805,0.35517114719787257,1554711017.137807
0.22223253716773317,0.17377259270821532,-0.34334165195184957,1554711017.338282
-0.14465971461979613,-0.28849997457217486,0.4119228437113521,1554711017.539777
0.5270446397327524,0.15066567551014282,0.18066298939657735,1554711017.741199
-0.6994912445342173,-0.2853009854707717,-0.8421615778197242,1554711017.942078
-0.3362038475982192,-0.4259031078537231,0.22596602269991525,1554711018.143063
0.667453949252782,-0.2888597676354446,0.19634820926881705,1554711018.343919
0.33006206549227846,0.23945519993727563,0.3114492326337147,1554711018.5454478
0.5221790444211776,0.18285690150258463,0.07623378515184522,1554711018.7466059
-0.7549331984235959,0.10120757827406328,-0.36144155998446414,1554711018.948213
-0.2889316729848767,0.04030507888558622,0.07266328507837598,1554711019.150931
0.17218774554350919,-0.071453677311262,-0.32264329764364474,1554711019.350628
0.2647296639465636,-0.6860840926584314,0.5939200768140591,1554711019.551845
0.9291966117207128,-0.10053539641492727,0.2581995929536893,1554711019.752966
-0.6064372002535406,0.5268915079700728,0.09715424709496268,1554711019.9550061
0.3750465847292429,0.41895785004690544,0.22265757767770983,1554711020.155287
-0.26670945790092854,-0.04037245686116522,-0.03779078850044241,1554711020.356347
0.02675491525926305,-0.938178122497005,0.3980893197450445,1554711020.557636
0.30807367595203927,-0.1388106139176551,-0.07818881170807239,1554711020.759488
-1.3467275400555538,0.31215017663262357,-0.6854238950242008,1554711020.96075
0.48802906344698255,-0.16767368749582487,0.017413078787483098,1554711021.163609
-0.6623537294491713,0.032023713159875816,-0.15811400444687643,1554711021.362819
0.13522946119982554,-0.2762976367735408,0.13934058297458085,1554711021.564038
0.10657544576722698,-0.29972253540576876,-0.3826930528510784,1554711021.7653599
-0.8900215120856472,0.5591578351052549,-0.4067533817193993,1554711021.966539
0.4166171977648348,-0.19761507499936773,-0.11214544718712771,1554711022.16812
-0.23931218818673836,0.22335772272829166,-0.10260840100744495,1554711022.3684812
0.13923671969206777,0.23393553226197739,0.11904250177821492,1554711022.569761
-0.03264902338382642,0.07245768904222187,-0.2468888814880138,1554711022.77169
-0.12596006270969576,-0.3212139790865992,0.24224858960465973,1554711022.972676
0.1683770283397148,0.33078617899267104,-0.3679069161628495,1554711023.1739821
-0.1655945576328,-0.10001315052516274,0.15635418759855207,1554711023.3754191
0.2891631016836046,0.24640605038238242,-0.045790924415040436,1554711023.5764341
-0.07606653863538825,-0.6068449302164317,-0.38680737041914187,1554711023.777698
0.19895757450487667,-0.2586049260715994,0.3394342620004853,1554711023.978991
0.2794532163491757,-0.07974809252631378,0.12759018361293326,1554711024.1799169
0.05489414165314929,-0.23505965255809982,0.23969115600985663,1554711024.38065
0.18688306843856642,0.02465634432028061,-0.050148654906737096,1554711024.582333
-0.5296737123608786,0.30885052004201535,-0.1465915716745396,1554711024.783605
-0.5676732926907833,0.31035254289682007,-0.10686093663608348,1554711024.985046
0.39272997436736906,-0.517887892956733,0.3435065016233255,1554711025.1860142
0.36692740551391834,0.06536435947879582,0.4833898368280645,1554711025.3874779
-0.21364038054281054,-0.25548157074515443,0.06387671769387755,1554711025.588684
-1.1969100813526012,0.33364268557789,-0.46767825166103305,1554711025.790045
0.14062182977501797,-0.07836591192056265,-0.25843554902627036,1554711025.991358
0.6322134038121995,0.5484628464836057,0.3152261276916651,1554711026.230517
0.6019199464125482,0.41473034813251364,0.2664266301931621,1554711026.393009
0.060288640757213796,-0.7402091133887657,-0.04648840630453219,1554711026.5946012
-0.280705967325949,-0.04093811227669805,0.09684052671855134,1554711026.796054
-0.12395816451828318,-0.19229221492862636,-0.7850069450333157,1554711026.9975529
0.32715708937522003,-0.32491577300180935,0.5699761280853748,1554711027.1984181
0.8953363826731183,0.36523736348615404,0.0749461467647919,1554711027.399911
-0.9828931298316534,-0.6564841224066367,-0.5136076604527576,1554711027.600967
-0.6399501530949887,0.2711896938027688,0.10433279781327126,1554711027.8021421
0.3701847178431943,-0.3428622829556353,-0.31311104515392413,1554711028.003797
0.08237450199334992,-0.03480991229231672,-0.012023906005598753,1554711028.223631
0.9947966609559806,0.017058612046393553,0.25112250867291275,1554711028.405273
-0.5873535205142508,0.46643775122527414,-0.18585002825172467,1554711028.6069021
-0.49712082909240407,0.8140524451461558,0.28554386576218693,1554711028.808473
0.04012957656974999,-0.9648978840298791,-0.34605381520598627,1554711029.0110521
-0.4248309191988572,-0.5761551944465766,0.20608312831749268,1554711029.210633
0.3774492886647124,-0.2527307916552116,0.3304799154673119,1554711029.4125628
-1.2096618292841186,0.602417158588066,-0.5108454297701274,1554711029.613243
0.8391516731557166,-0.4316512747505501,0.10675920388244245,1554711029.814506
0.11175023408135995,0.38007063812567743,0.15609399676005134,1554711030.01618
0.020038156673974204,0.23558323002840942,0.17936975837123487,1554711030.227747
-0.13920875650062195,-0.6471036700990506,-0.23617711495149707,1554711030.4175549
-0.5308399106022244,0.4830678606522739,0.3686432802042564,1554711030.6190329
0.3230952360806312,0.09276748814738416,-0.5724454110480962,1554711030.820341
-0.10137429215830224,0.39924726218701095,0.7046031822466243,1554711031.022284
0.32485798240615466,0.4138070301825832,0.3527841559128345,1554711031.223257
0.17008704407565467,-0.39896736395644367,0.05656101417942989,1554711031.423861
-1.4079355040210628,0.10673230595543265,0.10476556149040914,1554711031.625163
-0.051184624570777916,-0.2602196006405144,-0.44107060921005137,1554711031.8275142
0.4448291284564802,-0.17516143121669164,-0.033224266179283535,1554711032.027892
0.7720591884455684,-0.3815998252236009,0.4066481868563412,1554711032.237431
-0.6378643653292386,-0.0017076188909588075,-0.7345301886802807,1554711032.4298968
-0.5572733823179148,-0.4949982897036109,0.2572645570949625,1554711032.631218
0.3107131349084168,-0.3430159473505329,-0.35339588401522576,1554711032.8327398
0.572508261649822,-0.17222476348266127,0.38118090998413146,1554711033.034142
0.7047009202586303,-0.014502243716026491,0.3676943959078612,1554711033.235254
-0.14789412376369737,0.24015561130396645,-0.5325248926239174,1554711033.436532
0.1842681105642176,0.10807986546701275,-0.029417543717124274,1554711033.637518
-0.2865260395722081,0.24285685559763381,0.04916435056784381,1554711033.839443
-0.05034812567238403,-0.27619830086488084,0.16392768510651942,1554711034.0402641
-0.3229375769440985,-0.33532713496736516,-0.0882318584948702,1554711034.2409492
-0.908030073692872,0.09577339806975659,-0.05105759178678114,1554711034.442111
0.11291004073608946,-0.16434127402380871,-0.22220670450515942,1554711034.643708
0.2640428347014322,0.45347534725153144,0.6647574986490769,1554711034.845171
0.2844940476604777,0.4497602375308709,0.6280703241043633,1554711035.0461879
-0.922178383300027,0.0028333370837353017,-0.4797698019583198,1554711035.247541
0.2988258490667391,-0.1642936034402963,0.2344737571182824,1554711035.44869
-0.06512254445181662,0.3882643858515242,0.5891287836968976,1554711035.650052
-0.0019768644771658186,-0.6798158104007118,0.5727482124640382,1554711035.851336
0.8154045320315891,0.40680211756734774,0.6525751345586184,1554711036.052535
-0.8502746317645415,0.9905763495765321,-0.10093327268178512,1554711036.2530708
0.44411593391655696,0.72929574555773,0.3690499449027115,1554711036.45442
-0.38668593027343423,0.6131233324862936,0.8275863634898295,1554711036.656196
-0.6846861994022487,-0.40899176861561093,-0.3677798833788527,1554711036.8574939
0.5380112707855896,-0.2670444835660605,0.3198083626632554,1554711037.058769
-1.8319815896466738,-0.27640735901045205,-0.2231068529536062,1554711037.259529
0.4911830451259634,0.2914733939292483,-0.06371905855734486,1554711037.461344
0.6538454623985861,0.6644869214823248,0.45190275062783963,1554711037.6623368
-0.3980621555019257,0.3749323351184785,0.42296510853914765,1554711037.863628
0.08874558226914649,-0.33246796522105604,-0.03139573977483513,1554711038.064954
-0.2682080186463161,-0.027394340236991076,0.38242194305210836,1554711038.265252
-0.23996359738937173,-0.41044106088083204,-0.826089134324987,1554711038.46666
0.1602133743341859,-0.4502886086911426,0.5672634321990201,1554711038.6683378
0.9078031723679972,-0.07409846258981968,0.41185040572970194,1554711038.869699
-0.6062217505213532,-0.036328713061988906,-0.36007482571303545,1554711039.070997
-0.3819178066577564,0.5942716140779496,0.08650399957962679,1554711039.2721338
0.018634937095611454,-0.03820304583718667,-0.6525743356102913,1554711039.4734669
-0.18939948935258227,-0.5841140513642784,0.5419855060803149,1554711039.6750479
0.5427298596049921,-0.15207049298515962,0.20404154902583793,1554711039.876875
-1.9392912689264357,0.35914431722816176,-0.8389527350222877,1554711040.0770369
0.3701998978614077,-0.1396883918129452,-0.4540876079861407,1554711040.277741
0.27812429896522617,0.3594782776288577,-0.001954760240118161,1554711040.479069
0.7446283629016432,0.069370020074384,0.2991153346772307,1554711040.680605
0.23750443443879257,-0.33328342514683834,-0.877945940754901,1554711040.881973
-0.5078078282307831,-0.16004133412776678,-0.14698918162528843,1554711041.083129
-0.10496476593994707,-0.004638693986700017,-0.2662018593971594,1554711041.2845101
0.7253822303358586,0.0029965888585571586,-0.021159347492897565,1554711041.485671
0.5262116029437756,0.2796782534612874,0.07755471305252452,1554711041.686833
0.847027972079626,-0.013797837607700533,-0.09653932319926338,1554711041.8879519
-0.8655742259109378,0.856606829888423,0.3228659379107754,1554711042.090066
0.05682573239178376,-0.10685108294005019,-1.0187576539156415,1554711042.2898989
0.9442125792110155,-0.7684625893934164,0.7477402666354008,1554711042.491358
0.6386321546715085,0.2755181295224746,0.18459887517160545,1554711042.693169
-2.0518055639245394,0.4463716313598541,-0.9925878351478689,1554711042.894635
0.366243239429877,0.46642550068425975,0.29337648884421896,1554711043.095357
0.25871518094072865,-0.25003993368979555,-0.06368044272153871,1554711043.296865
0.3696209266404245,-0.2591809678153835,0.2728701484506088,1554711043.497782
0.3090707634641649,-0.05579215957272401,0.20401252056995609,1554711043.6990418
-0.6760844553974018,0.8492602337053304,-0.13621403185482783,1554711043.900337
0.38335884312359825,-0.35606517037581215,-0.3288825514454824,1554711044.101707
0.20307455523403017,0.9243898722692288,0.8225319500569681,1554711044.302229
0.28375235729689063,0.37284255261109334,0.4375997113613511,1554711044.503323
-0.4066995858653797,-0.2520612729571657,-0.004486627488456492,1554711044.7049642
-0.3571147221614124,-0.14994395885473136,0.21795177203153981,1554711044.907024
-0.08834530915730758,-0.10555865086303473,-0.7511147580526403,1554711045.10753
0.1256492718104835,0.2211648758867204,0.31093311201445734,1554711045.309211
0.6275962814303292,0.5717481954747134,0.3761193060163268,1554711045.510386
-0.6762053629108914,-0.36204396702304004,-0.37631025466648554,1554711045.711559
-0.6776879446897386,0.01630307324513807,-0.3294170478762613,1554711045.912747
0.46606437604044504,-0.2584941385702521,-0.19314788858686882,1554711046.113895
0.3044781421643233,-0.2242456206357241,0.7295900248581838,1554711046.3145452
0.7594147659059812,-0.3620735281111399,0.0498296082081456,1554711046.515593
-0.5801837582275394,0.3821100868884601,-0.3079144189188525,1554711046.7174358
-0.0037816887479125184,0.031947813068808555,-0.0005784385887652105,1554711046.918793
0.45748793206595384,-0.34580454332795485,-0.10565692150725865,1554711047.1198668
-0.2885545693745215,-0.4210004946029962,0.239871185699546,1554711047.321179
0.44406746438471756,-0.22215077812226774,0.4513831678991652,1554711047.522429
-0.26247876019322863,0.39319842440311403,0.15633394757426747,1554711047.7237349
0.07889801150636049,0.24323395920798904,0.12779791017795944,1554711047.924864
0.002858637114091054,-0.02603692702937769,-0.1919609176890205,1554711048.126044
-0.23032907951379208,-1.496770568502836,0.5626705445830694,1554711048.326707
0.4650047042427025,-0.5644609877839296,-0.015397065842293115,1554711048.527904
-1.5780534407653626,0.3996885479796371,-0.9246402094116962,1554711048.729599
0.5624748022429485,-0.16818368284457505,-0.8312825647667506,1554711048.931032
-0.3651406907385842,0.47222373500958026,-0.41437454981087907,1554711049.132102
0.8241311782915607,-1.3078062396723726,1.2496438667294782,1554711049.333041
0.37679468366877095,-0.3537687265678368,0.3692821725497664,1554711049.534597
-1.4235916954374208,0.18069707785853037,-0.6945643965175706,1554711049.73594
0.48819338048624045,-0.13147866512055795,-0.05245734925572679,1554711049.937152
0.4075302258093754,0.25028334661342877,0.2936981987039005,1554711050.138452
0.8698781605486149,-0.5460585446514821,0.799940088213717,1554711050.339118
-0.12701707134634818,0.256136974689423,0.1431971065491246,1554711050.540317
-2.0954105657168425,-0.1833866042434014,-1.4642395231553003,1554711050.7421188
0.12659922137131477,-0.21029278705258092,-0.07126991919604653,1554711050.943403
0.07932198675190111,1.06693556961572,0.5741951078842783,1554711051.144484
0.4922286021699285,0.1515727481774238,0.5365366784900129,1554711051.345608
0.010715228645933815,0.10541191068697137,0.13994192474872075,1554711051.546877
0.3425360457221006,0.22226502773303214,0.022996928645052237,1554711051.748054
0.11327223064434024,-0.16753520311914075,-0.6157840967313917,1554711051.949417
-0.5366818207694222,-0.6570708167947811,-0.2081473444784131,1554711052.150694
0.3598540496586679,0.20095068426469198,0.009845706550022943,1554711052.351159
-0.738402957537474,-0.1654366321801583,-0.6886697557607893,1554711052.5526562
0.6664336922391727,-0.657270287560428,-0.10606278725738673,1554711052.754184
-0.11878204462360517,0.06125190612349545,-0.4059770702616412,1554711052.955029
-0.17703975873352454,-0.2650361937880317,0.8473443556171274,1554711053.156444
0.5674874040466957,-0.03105325725865094,0.6050843144197804,1554711053.358079
-0.7637575826955734,0.5974666084377177,0.08502487991019678,1554711053.559231
0.371688604910762,0.1385520209758084,0.798630611905725,1554711053.7606158
-0.02333674800014635,0.19400010013569416,-0.42019568732157425,1554711053.9617949
-0.3508781315206648,0.23963363173031094,0.5132071210248097,1554711054.1625628
0.12567031078309512,0.2063158885967656,0.28219201121421317,1554711054.3635302
-0.39565758735369316,0.14251400572951928,-0.25369565491814733,1554711054.5647159
0.8124486895377101,-0.815768586152603,0.4563813886330259,1554711054.766354
0.1408404753005135,0.07650143284139818,-0.8380011875648025,1554711054.9677238
-0.4507219050004985,-0.27563770545541916,-0.17086335553341278,1554711055.168489
0.5278989818104498,0.008010255926740333,0.12068354164192176,1554711055.370219
-0.33202428258344885,0.09486818961523866,-0.8595264533914768,1554711055.571445
0.2551436156028234,-1.0868648030011099,0.20226122583711997,1554711055.772567
-0.08386374167492223,-0.14235474869633255,-0.5526735704831299,1554711055.974587
-0.7025014155143339,-0.503974474157723,-0.9264311852447745,1554711056.174543
-0.015575231319219417,-0.022613966080298843,-0.09399041171994854,1554711056.375743
0.7154084257374028,-0.23096877080762912,-0.7517030503374388,1554711056.577162
-0.04783143844225915,0.08151217043238226,0.28291612471460575,1554711056.7783751
-0.48363617922889685,-0.3313731396969245,0.5836679718816902,1554711056.980001
0.43328512407931374,-0.8465640494177342,0.8918577616572568,1554711057.180972
0.2776680994704956,-0.14462083246788096,-0.06448125526132555,1554711057.382309
-0.3037052928159823,-0.31092405726675104,-0.29845700125576313,1554711057.58355
0.15052532692069565,0.181121852052398,0.07530141245420847,1554711057.784828
-0.05960340940873641,0.2793927625924309,-0.2053073494919526,1554711057.986117
0.8040626615811596,-0.6118633909745771,1.2197030118581533,1554711058.187226
0.7793906046104475,0.21837627990929845,0.46514691704491273,1554711058.388638
-0.8138388596267315,0.0967720834785363,-0.5520261560221317,1554711058.589987
0.23863974001149335,-0.5646125216499551,0.24503132662768354,1554711058.791585
0.2207004205926106,-0.041333325382465806,-0.23600081368733383,1554711058.9921908
-0.15726552132357718,-0.008451541719366462,0.2656292797627924,1554711059.215955
0.4576384006675433,0.09172139847120103,0.5096523336017719,1554711059.394099
-0.1627481710597233,0.7126997245926833,-1.0967057158611708,1554711059.5957608
1.1078569039775505,-1.2526646903539551,1.1618519624466892,1554711059.7971768
-0.06710393630283558,0.09861632253341618,-0.1963071965880298,1554711059.9987168
0.11430500451507297,0.3287422028560352,1.8326777399556204,1554711060.199641
0.5292779666228928,-0.060201289073459195,0.5898726045893568,1554711060.400739
-0.8023483847874756,0.661604582234532,-0.3913011884425416,1554711060.602248
0.510025176154383,0.864406429772938,-0.017082846812313274,1554711060.8031368
0.27042430130548006,0.058252654103848216,-0.3727669188361351,1554711061.004925
0.34365217653495284,0.11426452446650376,0.005594502501929456,1554711061.225728
0.9407454097878414,-0.6318102012231616,-0.26247849387711963,1554711061.406446
-0.6961329983996274,0.06945976860311967,-0.5461371079036395,1554711061.608273
-0.24353649430782204,-0.05352554316895757,-0.5626998393550603,1554711061.809318
-0.27990116004452703,-0.6080545379835457,-0.14124873789562264,1554711062.0103621
0.2216343911869014,0.2127319762949845,-0.23335522946044912,1554711062.211606
-0.9719957409671582,0.04020973771856138,-0.4987440257768074,1554711062.4130058
-0.3587288640981094,0.09221861064671882,0.1810779098944117,1554711062.614254
0.10014630857966669,-0.5936079543343019,-0.41900152588878276,1554711062.815655
0.4238631264587224,-0.9869853431626692,0.5143381655397663,1554711063.016735
0.4705856246230725,-0.025843315218128927,0.22572926767900722,1554711063.231793
-0.7720991358619196,0.27221660871910336,-0.3869591706012764,1554711063.41868
0.6806027745028302,-0.18087071596160353,0.2912108062457665,1554711063.6200662
0.06676598116050451,0.39592603399157317,-0.0620162333563482,1554711063.821662
0.46970465093447433,0.021560952185281514,0.4425254941135617,1554711064.022739
-0.11875621196103141,-0.13982687618962933,-0.23342926533875333,1554711064.223969
-0.9134501391434012,0.16783427610955665,0.2551207124174487,1554711064.425519
0.06409776006435412,-0.0864134521025641,-0.0014072143199978695,1554711064.6265888
0.7431148884541512,0.5676165673595646,0.004048004856920442,1554711064.827806
0.27576367297497995,0.6582085192124629,-0.17533000931369366,1554711065.0288749
-1.118902897230872,-1.1918082636523364,-0.1304088733106731,1554711065.245574
-0.2703595864909911,0.1632147568827052,0.039883500485026674,1554711065.4310598
-0.3985588350452255,-0.4862261033889989,-0.7216612616607999,1554711065.632422
0.8812575815704144,-0.5207206974082502,0.8690565753523254,1554711065.833761
1.0833512945749684,0.2892043806805008,0.09261941639077574,1554711066.035011
-1.1356603057579777,0.04468917467207466,-0.15858831343701954,1554711066.2362509
-0.04615178274274617,0.0227234220011011,-0.1917057868565909,1554711066.4375892
-0.07921199819888083,0.3437949219693811,-0.23434752328261266,1554711066.6386719
0.8784934866750213,-0.6492717495424841,1.2374585731618206,1554711066.840096
0.5604934103919296,-0.07602632490292804,-0.13605024744778796,1554711067.0412931
-0.9364169740681356,0.8522546920350155,-0.18261268963062435,1554711067.241716
0.3862688792467278,-0.3990872062054972,0.001293763657560494,1554711067.443172
0.3760537922535109,0.24208587046205587,0.047593618156915075,1554711067.644577
-0.1665759324944942,0.44077047095519944,-0.21795976151481006,1554711067.8461308
-0.24675732133016387,-0.546928066747393,-0.037324202677460526,1554711068.047399
-1.5728304492354992,0.17355581139548287,-0.34721921449900495,1554711068.248476
0.5414688528288396,0.1809905582106571,-0.4311295614930036,1554711068.450001
0.7514255489518525,1.0895154472340658,-0.5883050679717361,1554711068.651207
0.0683886452126898,-0.1116309244645244,1.0108454023170161,1554711068.8521771
-0.335088782049803,-0.854858997265004,-0.1661785888598544,1554711069.0535731
-0.46252556758394775,0.6489111575308874,0.6243501543776315,1554711069.254167
-0.7156563660348892,-0.28222130598620404,-1.5628470572571191,1554711069.4554129
0.6212137495618453,0.052265069025023064,0.09006624385371678,1554711069.657002
0.9455268492089697,0.5952527226235348,0.5388102191126135,1554711069.8590798
-0.7510833327517773,-1.371099991403632,-0.5362362739190518,1554711070.059692
-0.870922918644253,0.3264135347988699,0.17601417539773503,1554711070.2607632
0.3209793545945632,-1.3326798979376038,-0.4440640022753004,1554711070.462029
0.6007952934842077,-0.5088600431774734,1.1291688506009097,1554711070.663392
1.1053431462246248,0.4701081198396213,0.001377120599679974,1554711070.864328
-1.428169136719049,0.2037105181023411,-0.6107613749155022,1554711071.065911
-0.7784017728977012,-0.16764971904601417,0.10125311832870362,1554711071.266375
-0.7048900046960259,0.07175674504331302,-0.3154066900135724,1554711071.4676309
1.1740175486222801,-0.695213675191332,0.2535039073196616,1554711071.6692472
0.8738111168464439,0.027664118455416102,0.5219585346829191,1554711071.8706079
-1.4752546237399768,1.5482803650427126,0.13083231592399572,1554711072.071928
0.21486996201810013,1.731054708551505e-05,0.052942843522448234,1554711072.272921
-0.14684563724253316,-0.1770661240283163,-0.4153961384050335,1554711072.474325
-0.39604347939564566,-0.38378974258797305,-0.03417767784953191,1554711072.676276
0.9636477962141958,-1.0841236112910915,0.08094598238463142,1554711072.8770819
-1.2630459585991929,0.8617246265552283,-0.4024824702792392,1554711073.077893
-0.16240994960128324,0.12536910726380715,-0.23272459291431835,1554711073.2786021
0.29195888819596977,0.029436984793081853,0.35801753377094925,1554711073.479913
0.34616806481675066,0.3341561430360573,0.38637460674200397,1554711073.681381
-0.33721957723797547,0.04178073644559912,-0.30812560759329577,1554711073.883306
-1.3227774660563623,1.0586281049113269,-0.10668756484911932,1554711074.083973
0.7794305520267988,-0.44547973871078655,-0.34479200948150673,1554711074.285661
0.31062498427633517,0.6245054166691831,0.6624738380143339,1554711074.486567
0.07407316255946393,0.3042272723896378,0.3049942627835806,1554711074.687746
-0.49747369793683954,-0.20617687158786346,-0.5847862332234144,1554711074.8889499
-0.6668195842811252,0.3169249581510266,-0.013396499231425591,1554711075.090267
0.10620260321461589,-0.20739260462548464,-0.11562753031240632,1554711075.290896
1.079268668623877,0.7986226224224547,0.7070932378658484,1554711075.49227
0.9757044591012025,0.3398196214102198,1.0301788865665553,1554711075.6937308
-0.24297137152450723,0.2530868562929552,-0.3306399714488257,1554711075.895016
-0.09104815134762899,-0.17325567314063095,0.06054723369906049,1554711076.0964541
-0.1678356076901017,-0.0026730147861125314,-0.31247108754397807,1554711076.297472
0.5846027414243079,-0.23433687063825231,0.7114011672451607,1554711076.498878
0.5746057673243685,0.38198518463333536,0.5679795562161424,1554711076.700194
-0.11012543950030261,-0.4430349568300938,-0.11532978890253545,1554711076.9012852
-0.30811282442006344,-0.017265007030874694,-0.472382725726658,1554711077.102275
-0.17632816209025537,-0.1801870825097802,-0.4251433079947235,1554711077.303139
0.11993119863397436,0.14084553530658464,0.1081019697040604,1554711077.504212
1.1862137611504069,0.21283104588753546,0.7276014424722217,1554711077.706056
-0.6675013535201855,-0.1973580799541751,-0.5254382209632166,1554711077.907401
-0.5907333382536704,0.06003137939591214,0.054364705228441536,1554711078.1087198
0.5642255643435666,0.16234576741901235,0.25749918158699847,1554711078.309274
0.0732989816305779,0.4002930855470851,-0.021837654622540746,1554711078.510647
0.762094971227037,0.07019852948950765,0.6382015215232427,1554711078.71207
-1.1390150897831506,-0.6794472289058449,-0.5568555323428813,1554711078.913558
-0.031844216102404475,-0.4675251198983535,-0.16817116598745166,1554711079.114748
-0.2174673430292544,-0.01808765749160017,-0.5020881571576199,1554711079.3159308
-0.07001264084542011,0.0142471128835969,0.3129224933487465,1554711079.5173268
0.48330434935707295,-0.02603825860992273,0.36766004112979916,1554711079.7186232
-0.6777880795467255,-0.11365039951913149,-0.5538229908096082,1554711079.9197311
0.30761667750898164,-0.5961153205006114,0.05835385422527123,1554711080.120686
-0.3845788372189635,0.06858252334004757,-0.846927038274312,1554711080.321557
0.0641371748484873,0.0344900666453982,0.05975174748145382,1554711080.522661
1.0164391058706186,-0.11528025410625999,0.6335929212568606,1554711080.7243
-1.2090980380813487,-0.6485015633552331,-0.9170246339585056,1554711080.9258451
0.03436596333860051,-0.2571053000617758,0.30948595027810827,1554711081.126905
-0.11067245278820488,0.06687596971352479,-0.7329277646523801,1554711081.3282251
0.19815303353956373,0.20907705401495977,0.3412228409885826,1554711081.529522
0.7725007405543035,-0.15953293667567064,-0.18224197760688532,1554711081.730705
-1.2244045564465793,-0.28057440716809906,-0.46676745056822594,1554711081.931617
-0.816646896680111,0.061367487314804896,-0.922111005324448,1554711082.1332278
0.8594793154401824,-0.8706629941218612,0.5333480757168609,1554711082.333802
0.4565121498425488,0.5083375309715998,0.5266390402987333,1554711082.5349941
0.10451788750903176,0.40215250462017843,0.1898474330479336,1554711082.736648
-0.6057423815251389,-0.40130988045127736,-0.27195322208729455,1554711082.938054
-0.22681131002990643,-0.31610097610975607,-0.4568011028208224,1554711083.1389809
-0.2815890715434192,-0.20582187221455592,-0.14927790226610252,1554711083.340475
0.7914334190597858,0.3677420664913736,0.6580141084528872,1554711083.541655
0.8160085369668191,-0.07975767990623807,0.6104556440223612,1554711083.742928
-0.8336415928603427,-0.5007706913663577,-0.6164184617030486,1554711083.944057
-0.4040183152798879,0.6721701412272034,0.42345459754750425,1554711084.1454248
-0.4919561607904134,-0.17797133248283425,-0.35690619664805917,1554711084.345945
0.5502599475871911,0.14962810794944795,0.3658562821234885,1554711084.5476851
0.8732734246223569,0.32358339350844273,0.1950903982859726,1554711084.748688
-1.8201912428686748,0.041092309303813634,-0.8540800226461558,1554711084.950464
0.6746279725972375,-0.12522076919108974,0.5434129604245974,1554711085.1549702
-0.7505831910990605,0.5043055050812199,-0.6484781275376404,1554711085.352769
0.7200404618213777,0.14601233413744738,0.3281107673615774,1554711085.553997
0.10456981915028832,0.5797832187995915,-0.7245931357048682,1554711085.75506
-1.501039349414124,-0.9466981074563865,-0.35440362417171173,1554711085.95639
-0.4814092439253726,0.6141294747461254,-0.32897309892254506,1554711086.1572042
0.04490861914589719,-0.7353357949100298,0.5464135440247897,1554711086.358358
0.8711002851728522,-0.24359774701289388,0.47753620875207037,1554711086.5597382
1.192359005365765,-0.1860058231754943,0.35451094956364193,1554711086.761286
-1.1558116467782804,0.22548558843926497,-0.36072596859955985,1554711086.9623551
-0.8781427483594577,0.5898547614100532,0.016836504411480945,1554711087.168497
-0.048783784848071485,0.2260147585478637,-0.1873762858724491,1554711087.3649678
0.9987011214301458,-0.19455616817130272,0.5630921229836289,1554711087.566148
0.8986333761026364,0.008066448625741005,0.2820378141870976,1554711087.767602
-0.8834693368557253,0.6727816030134856,-0.43740956165951944,1554711087.968775
-0.06422372758391488,0.4761084880916789,0.3167534505768255,1554711088.171541
-0.19049085276729677,0.2820684405396335,-0.39513187935451155,1554711088.370576
0.7382500920909035,-0.574490186133059,0.293780490381584,1554711088.571622
0.4465596505328137,0.45633558226227655,0.24246989829124532,1554711088.773248
-0.9095368902376388,-0.10791901053717196,-0.42301490965153216,1554711088.974697
-0.8562073557249111,0.35705586630132163,-0.40030693398475353,1554711089.175731
0.46940291478296836,-0.820611278278803,0.4640747283900468,1554711089.377584
0.5798423409757913,-0.653434802958496,0.6659463337596881,1554711089.578182
0.5949110390556777,0.258995611803514,0.1730825676697758,1554711089.7796512
-1.1995415508257086,0.4371802634896636,-0.3494789066839372,1554711089.980886
-0.034470092937222606,0.44090975428021056,-0.051839229566719394,1554711090.2154331
-0.04263268167831547,-0.08735860797343321,-0.1524462650149698,1554711090.3828192
0.3255179137242763,-0.20775239768875434,0.8735045870049758,1554711090.584166
0.871932789329611,-0.3127501868262184,0.17383757383881326,1554711090.7858648
-0.5328202371888072,0.784716394158388,-0.38556713629949196,1554711090.986988
0.20709992322168494,0.43165979686603834,0.2521459614798302,1554711091.1881971
-0.08038671855571478,0.3580982275519787,-0.5640620462526358,1554711091.389437
0.4689435194949297,-0.5933235287298814,0.3729381600942272,1554711091.590678
0.5780409788144617,-0.27721642734961816,-0.06453105637371002,1554711091.791831
-0.6855575857109227,-0.09130115165118652,-0.4481524871807901,1554711091.993118
-0.10873313888240918,0.4264093747769471,-0.308165022377429,1554711092.194483
-0.10121423617678847,-0.43221320174055683,-0.060182114313610625,1554711092.395081
0.018293253527754287,-0.2923375897029791,0.5180612647436971,1554711092.5965152
-0.05213803624102629,-0.13800181189459804,0.2249356456741636,1554711092.797981
-0.7565750372356297,0.33552687204912107,-0.11502459064161237,1554711093.000112
0.6449755380719683,-0.1738663359785861,0.01410223692029659,1554711093.200587
-0.35359881689028977,0.01689322974269963,-0.21093753835248913,1554711093.401528
-0.25420059026082636,-0.20827384463019186,0.45540747062238396,1554711093.60284
0.20566847413576733,-0.39753431697387204,0.04249046887610524,1554711093.804014
-1.452535729112729,0.6554377664143445,-1.1443299603706218,1554711094.0053148
-0.19386188207511906,-0.08467121211743427,-0.8071857505914956,1554711094.218163
0.15111734763102025,-0.20205163505933074,0.37627030725013433,1554711094.407331
0.1605734337135646,-0.5755013883989621,0.962981206993349,1554711094.608664
0.4902259050301889,0.21374983646361279,0.13402890818041782,1554711094.810305
-0.710439499775533,0.21076842762326908,-0.4083198530725839,1554711095.0115
-0.7760251679409144,0.45216107725357735,-0.4684138167541129,1554711095.212421
0.10996778036376992,0.23439892229165118,0.7043845367211289,1554711095.413875
-0.04443404383964507,0.5017784315228436,1.2009572872611947,1554711095.615162
0.7545981727584639,-0.05427548933192388,0.3305318471085685,1554711095.816372
-0.45810791596772427,0.2582581824976711,-0.2393441461198193,1554711096.017472
-1.0469839656771733,0.29953611412946324,-0.32719410731437215,1554711096.221733
-0.23356828234765545,0.17567648657151297,0.07705590298035268,1554711096.419485
0.04765566981031392,0.21256872452016265,0.4064164918415043,1554711096.621016
0.39149266972491825,-0.19328370980246284,-0.14828720634059306,1554711096.822527
0.08869338431178093,-0.14808400714942002,-0.1520193602922301,1554711097.02322
-0.06505649805678265,0.3869370663642287,-0.7581364485827432,1554711097.224752
-0.03811462888899604,-0.19053053386753893,0.050267698207463636,1554711097.426218
-0.007151386475189778,-0.31847917896319683,-0.5212400138208156,1554711097.627275
0.1024651229407987,-0.057081662172540376,-0.22872559022145536,1554711097.829078
0.04275651866900415,-0.017849837206256092,0.10285101498275118,1554711098.0297341
-0.3520398023881574,0.06761766007711185,0.19829418107733793,1554711098.230349
1.2062756199580829,0.11952852867715438,0.7530314350891703,1554711098.4317799
0.7020870276487176,-0.025375397814602005,0.4703557938209987,1554711098.633513
-0.6405198032521566,-0.003485278918586699,-0.2162843668730412,1554711098.834838
0.7280083734867857,-0.5750989847582512,-0.3748202160365862,1554711099.0359101
0.1932152665624478,-0.011664379258438055,-0.39680674136406235,1554711099.237132
-0.5991020556631353,0.21191651636920225,0.05795171690066926,1554711099.438445
-0.0014724617667048107,-0.27193990628184417,0.2993563507558829,1554711099.639701
0.05101364962879483,-0.262222830412472,-0.05620628112223133,1554711099.840663
-0.48726660042689285,0.6222294792016014,-0.4252343881040042,1554711100.041785
0.3542989619408716,-0.030959513988280153,-0.4860343557905132,1554711100.242522
0.2516815061857204,0.4078125208849238,0.5139458819111976,1554711100.4439921
0.396257331231179,-0.09379520201204573,0.5915783592675525,1554711100.645334
0.3543562199043083,0.24922207691903223,-0.45116079394814357,1554711100.8467531
-0.4516470871631921,-0.28298004058076764,-0.21716986793549256,1554711101.048057
-0.5423559517879449,0.1362672950766294,-0.5994322876383051,1554711101.249498
0.6774477275594134,-0.4507322913287498,0.8439879736953005,1554711101.450656
0.682778843429534,0.09850739924483193,0.42182900401811985,1554711101.651602
-0.21558342287413235,-0.5724736405556511,-0.35962768096601117,1554711101.8532848
-1.089019034006875,0.12282099473281935,-0.07041477817002208,1554711102.0542521
0.5980628902057864,-0.5146958280741639,-0.007758853519836853,1554711102.254819
0.4131324514784661,0.2418280764685362,0.1628688122571039,1554711102.4562159
1.0434656635610697,0.09044894010236117,0.70741494772553,1554711102.6577148
-0.9116314664349862,-0.003910585744672354,-0.639288091247995,1554711102.8592138
-0.5217835649993009,0.4513237794068564,0.28922488702089444,1554711103.0603619
-0.2730978487238106,-0.4286948996244532,-0.8478098761756733,1554711103.261904
0.5347904437632478,-0.7900320636941862,1.3892038941778817,1554711103.4627109
0.7504974373119598,0.4813684975606944,0.23726128783126835,1554711103.664202
-0.9234753427508956,0.2103721492530653,-0.49845480648242474,1554711103.865274
-0.5148873093565407,0.2015837176558038,0.1420069398579682,1554711104.066536
0.4368758641770676,-0.4850942599257152,-0.03238377253925453,1554711104.2671862
0.35992595500810004,-0.33940123880296835,0.5396768117313252,1554711104.4685001
0.918413738783091,0.0619927975387555,0.5741386488691685,1554711104.6699681
-1.352318314131957,0.4219541725893536,-0.13036732799766787,1554711104.8713799
-0.17064417737569926,0.6589352958739456,-0.2225728891550453,1554711105.0726619
1.1136639267344683,0.5038839266806603,0.3272785295209277,1554711105.273772
-0.015442339580824463,-0.15129551310794656,0.674947551928047,1554711105.474897
-0.2330755975459908,-0.8740324255330295,-0.022123678123615254,1554711105.676574
-1.1138799090988738,0.2610856606270082,-1.5401020636511884,1554711105.877625
0.60880235361764,0.1704441739778343,-0.21137163361017203,1554711106.079152
-0.11535375735234617,0.08575165657167941,-0.16737035344766485,1554711106.279368
0.6655551153955556,-0.4794201289071924,0.6162131319830034,1554711106.480756
0.587496532264788,-0.184214314710198,0.005753493219007186,1554711106.682066
-1.5059299784399456,0.7860085599192944,-0.13632668356893818,1554711106.88372
-0.37227529929890646,-0.3975276590711468,-1.4042638038261708,1554711107.084826
1.3751445341511352,0.32898827894075855,1.2184377440242566,1554711107.285991
-0.6465673094555086,-0.12111923479625872,0.04685006358056495,1554711107.487525
0.5597929990252387,-0.33477985536335386,-0.026759176317007177,1554711107.6887589
